imageone,imagetwo,imagethree,imagefour,imagefive,imagesix,imageseven,imageeight,imagenine,imageten,imageeleven,imagetwelve,imagethirteen,imagefourteen,imagefifteen,imagesixteen,frequency,choice_image,choice_type,correct_answer,stimulus_type,condition_code,block_one.thisRepN,block_one.thisTrialN,block_one.thisN,block_one.thisIndex,fone_control_b1.thisRepN,fone_control_b1.thisTrialN,fone_control_b1.thisN,fone_control_b1.thisIndex,ftwo_control_b1.thisRepN,ftwo_control_b1.thisTrialN,ftwo_control_b1.thisN,ftwo_control_b1.thisIndex,fthree_control_b1.thisRepN,fthree_control_b1.thisTrialN,fthree_control_b1.thisN,fthree_control_b1.thisIndex,ffour_control_b1.thisRepN,ffour_control_b1.thisTrialN,ffour_control_b1.thisN,ffour_control_b1.thisIndex,text.started,text.stopped,Crossm.started,Crossm.stopped,Presentation_image_f1_1.started,Presentation_image_f1_1.stopped,Presentation_image_f1_2.started,Presentation_image_f1_2.stopped,Presentation_image_f1_3.started,Presentation_image_f1_3.stopped,Presentation_image_f1_4.started,Presentation_image_f1_4.stopped,Fixation_cross.started,Fixation_cross.stopped,displayed_choice_image.started,displayed_choice_image.stopped,key_resp.keys,key_resp.corr,key_resp.rt,key_resp.started,key_resp.stopped,Presentation_image_f2_1.started,Presentation_image_f2_1.stopped,Presentation_image_f2_2.started,Presentation_image_f2_2.stopped,Presentation_image_f2_3.started,Presentation_image_f2_3.stopped,Presentation_image_f2_4.started,Presentation_image_f2_4.stopped,Presentation_image_f2_5.started,Presentation_image_f2_5.stopped,Presentation_image_f2_6.started,Presentation_image_f2_6.stopped,Presentation_image_f2_7.started,Presentation_image_f2_7.stopped,Presentation_image_f2_8.started,Presentation_image_f2_8.stopped,Presentation_image_f3_1.started,Presentation_image_f3_1.stopped,Presentation_image_f3_2.started,Presentation_image_f3_2.stopped,Presentation_image_f3_3.started,Presentation_image_f3_3.stopped,Presentation_image_f3_4.started,Presentation_image_f3_4.stopped,Presentation_image_f3_5.started,Presentation_image_f3_5.stopped,Presentation_image_f3_6.started,Presentation_image_f3_6.stopped,Presentation_image_f3_7.started,Presentation_image_f3_7.stopped,Presentation_image_f3_8.started,Presentation_image_f3_8.stopped,Presentation_image_f3_9.started,Presentation_image_f3_9.stopped,Presentation_image_f3_10.started,Presentation_image_f3_10.stopped,Presentation_image_f3_11.started,Presentation_image_f3_11.stopped,Presentation_image_f3_12.started,Presentation_image_f3_12.stopped,participant,session,date,expName,psychopyVersion,frameRate,
LZ_natural\LZ_natural_137.jpg,LZ_natural\LZ_natural_129.jpg,LZ_natural\LZ_natural_89.jpg,LZ_natural\LZ_natural_97.jpg,None,None,None,None,None,None,None,None,None,None,None,None,1.0,LZ_natural\LZ_natural_89.jpg,1.0,a,1.0,11.0,0,0,0,0,,,,,,,,,,,,,,,,,13.292456700000912,None,16.496419699979015,None,17.428366999985883,18.43072669999674,18.396462199976668,19.39627189998282,19.39627189998282,20.396190200001,20.396190200001,None,21.35237340000458,22.3555015999882,22.34069240000099,None,l,0,0.2542018999811262,0.9999139200081117,None,,,,,,,,,,,,,,,,,,,,,,,,,,,,,,,,,,,,,,,,,6969,001,2021_Jan_25_0204,new_STLI_updated,2020.2.10,143.67671590889637,
LZ_noise\LZ_noise_200.jpg,LZ_noise\LZ_noise_16.jpg,LZ_noise\LZ_noise_65.jpg,LZ_noise\LZ_noise_19.jpg,None,None,None,None,None,None,None,None,None,None,None,None,1.0,LZ_noise\LZ_noise_228.jpg,0.0,l,3.0,31.0,0,1,1,1,,,,,,,,,,,,,,,,,,,22.61070709998603,None,23.656156399985775,24.65977820000262,24.653432799997972,25.65274930000305,25.65274930000305,26.65275290000136,26.65275290000136,None,27.631414599978598,28.635418999998365,28.62544559998787,None,l,1,0.25642079999670386,1.0041297799907625,None,,,,,,,,,,,,,,,,,,,,,,,,,,,,,,,,,,,,,,,,,6969,001,2021_Jan_25_0204,new_STLI_updated,2020.2.10,143.67671590889637,
LZ_scrambled\LZ_scrambled_163.jpg,LZ_scrambled\LZ_scrambled_172.jpg,LZ_scrambled\LZ_scrambled_238.jpg,LZ_scrambled\LZ_scrambled_191.jpg,LZ_scrambled\LZ_scrambled_175.jpg,LZ_scrambled\LZ_scrambled_112.jpg,LZ_scrambled\LZ_scrambled_129.jpg,LZ_scrambled\LZ_scrambled_149.jpg,None,None,None,None,None,None,None,None,2.0,LZ_scrambled\LZ_scrambled_129.jpg,1.0,a,2.0,22.0,0,2,2,2,,,,,,,,,,,,,,,,,,,28.896986799984006,None,,,,,,,,,33.87651869998081,34.877748099999735,34.86879819998285,None,l,0,0.35792370000854135,1.0012479400320444,None,30.157468199991854,30.61087679999764,30.646909300005063,31.09719369999948,31.146548599994276,31.59693959998549,31.64666299999226,32.097001499991165,32.14676730000065,32.597183000005316,32.646639099984895,33.097265299991705,33.146714699978475,33.597077899990836,33.64669470000081,None,,,,,,,,,,,,,,,,,,,,,,,,,6969,001,2021_Jan_25_0204,new_STLI_updated,2020.2.10,143.67671590889637,
LZ_noise\LZ_noise_1.jpg,LZ_noise\LZ_noise_176.jpg,LZ_noise\LZ_noise_202.jpg,LZ_noise\LZ_noise_236.jpg,LZ_noise\LZ_noise_133.jpg,LZ_noise\LZ_noise_138.jpg,LZ_noise\LZ_noise_56.jpg,LZ_noise\LZ_noise_168.jpg,LZ_noise\LZ_noise_129.jpg,LZ_noise\LZ_noise_134.jpg,LZ_noise\LZ_noise_47.jpg,LZ_noise\LZ_noise_4.jpg,None,None,None,None,3.0,LZ_noise\LZ_noise_161.jpg,0.0,l,3.0,33.0,0,3,3,3,,,,,,,,,,,,,,,,,,,35.24069529998815,None,,,,,,,,,40.27345839998452,41.28238999997848,41.264225299993996,None,l,1,0.5925489999935962,1.0026284000196029,None,,,,,,,,,,,,,,,,,36.35493229998974,36.659622999985004,36.694703199988,36.99981259999913,37.04217929998413,37.34788879999542,37.34788879999542,37.65246979999938,37.69507399998838,37.99981639999896,38.04215359999216,38.347930199990515,38.347930199990515,38.652577899978496,38.69508649999625,39.00004109999281,39.04247519999626,39.347872399986954,39.347872399986954,39.652432300004875,39.69513419998111,39.99987509998027,40.0419917999825,None,6969,001,2021_Jan_25_0204,new_STLI_updated,2020.2.10,143.67671590889637,
LZ_natural\LZ_natural_76.jpg,LZ_natural\LZ_natural_167.jpg,LZ_natural\LZ_natural_37.jpg,LZ_natural\LZ_natural_168.jpg,None,None,None,None,None,None,None,None,None,None,None,None,1.0,LZ_natural\LZ_natural_76.jpg,1.0,a,1.0,11.0,0,4,4,4,,,,,,,,,,,,,,,,,,,41.86892119998811,None,42.92626909998944,43.930887800001074,43.917672699986724,44.916856499999994,44.916856499999994,45.917096699995454,45.917096699995454,None,46.878247799992096,47.885605199990096,47.87547430000268,None,l,0,2.7191753999795765,1.003758260019822,None,,,,,,,,,,,,,,,,,,,,,,,,,,,,,,,,,,,,,,,,,6969,001,2021_Jan_25_0204,new_STLI_updated,2020.2.10,143.67671590889637,
LZ_natural\LZ_natural_28.jpg,LZ_natural\LZ_natural_19.jpg,LZ_natural\LZ_natural_128.jpg,LZ_natural\LZ_natural_208.jpg,LZ_natural\LZ_natural_45.jpg,LZ_natural\LZ_natural_207.jpg,LZ_natural\LZ_natural_169.jpg,LZ_natural\LZ_natural_71.jpg,None,None,None,None,None,None,None,None,2.0,LZ_natural\LZ_natural_155.jpg,0.0,l,1.0,12.0,0,5,5,5,,,,,,,,,,,,,,,,,,,50.60911940000369,None,,,,,,,,,55.57930719997967,56.586216499999864,56.57711779998499,None,l,1,0.8653116000059526,1.0042879800021183,None,51.742339099990204,52.19448959999136,52.23688859998947,52.68745959998341,52.73700579997967,53.18776400000206,53.23666460000095,53.687475399987306,53.73689169998397,54.18767379998462,54.236838599987095,54.68793459999142,54.73674949997803,55.187753000005614,55.236939299997175,None,,,,,,,,,,,,,,,,,,,,,,,,,6969,001,2021_Jan_25_0204,new_STLI_updated,2020.2.10,143.67671590889637,
LZ_noise\LZ_noise_203.jpg,LZ_noise\LZ_noise_173.jpg,LZ_noise\LZ_noise_218.jpg,LZ_noise\LZ_noise_48.jpg,LZ_noise\LZ_noise_237.jpg,LZ_noise\LZ_noise_126.jpg,LZ_noise\LZ_noise_234.jpg,LZ_noise\LZ_noise_195.jpg,None,None,None,None,None,None,None,None,2.0,LZ_noise\LZ_noise_74.jpg,0.0,l,3.0,32.0,0,6,6,6,,,,,,,,,,,,,,,,,,,57.45657239999855,None,,,,,,,,,62.43123159999959,63.43312969998806,63.42449449998094,None,l,1,0.4577931000094395,1.002804340008879,None,58.57064089999767,59.0211456999823,59.06335359998047,59.514089799980866,59.56317379997927,60.014156399993226,60.063356400001794,60.51392989998567,60.56322879999061,61.01391459998558,61.063470699999016,61.513847299996996,61.563230400002794,62.01400629998534,62.06314469999052,None,,,,,,,,,,,,,,,,,,,,,,,,,6969,001,2021_Jan_25_0204,new_STLI_updated,2020.2.10,143.67671590889637,
LZ_scrambled\LZ_scrambled_197.jpg,LZ_scrambled\LZ_scrambled_110.jpg,LZ_scrambled\LZ_scrambled_34.jpg,LZ_scrambled\LZ_scrambled_37.jpg,LZ_scrambled\LZ_scrambled_45.jpg,LZ_scrambled\LZ_scrambled_103.jpg,LZ_scrambled\LZ_scrambled_213.jpg,LZ_scrambled\LZ_scrambled_75.jpg,None,None,None,None,None,None,None,None,2.0,LZ_scrambled\LZ_scrambled_34.jpg,1.0,a,2.0,22.0,0,7,7,7,,,,,,,,,,,,,,,,,,,63.89771920000203,None,,,,,,,,,68.87693999998737,69.87670199997956,69.8690898999921,None,l,0,0.23672980000264943,1.0019066400127485,None,65.15820899998653,65.61113340000156,65.64699459998519,66.0975788999931,66.14698599997791,66.59752749998006,66.64646479999647,67.09726929999306,67.14714630000526,67.59775939999963,67.6469619999989,68.09758979998878,68.14696650000405,68.59768179999082,68.64676209999016,None,,,,,,,,,,,,,,,,,,,,,,,,,6969,001,2021_Jan_25_0204,new_STLI_updated,2020.2.10,143.67671590889637,
LZ_noise\LZ_noise_113.jpg,LZ_noise\LZ_noise_53.jpg,LZ_noise\LZ_noise_170.jpg,LZ_noise\LZ_noise_32.jpg,None,None,None,None,None,None,None,None,None,None,None,None,1.0,LZ_noise\LZ_noise_89.jpg,0.0,l,3.0,31.0,0,8,8,8,,,,,,,,,,,,,,,,,,,70.11535369997728,None,71.17911549998098,72.18125649998547,72.16794139999547,73.16750189999584,73.16750189999584,74.16755409998586,74.16755409998586,None,75.12757609999971,76.13543999998365,76.11922399999457,None,l,1,0.466831199999433,1.0017266200156882,None,,,,,,,,,,,,,,,,,,,,,,,,,,,,,,,,,,,,,,,,,6969,001,2021_Jan_25_0204,new_STLI_updated,2020.2.10,143.67671590889637,
LZ_noise\LZ_noise_40.jpg,LZ_noise\LZ_noise_240.jpg,LZ_noise\LZ_noise_205.jpg,LZ_noise\LZ_noise_198.jpg,LZ_noise\LZ_noise_26.jpg,LZ_noise\LZ_noise_197.jpg,LZ_noise\LZ_noise_14.jpg,LZ_noise\LZ_noise_37.jpg,LZ_noise\LZ_noise_52.jpg,LZ_noise\LZ_noise_93.jpg,LZ_noise\LZ_noise_92.jpg,LZ_noise\LZ_noise_196.jpg,None,None,None,None,3.0,LZ_noise\LZ_noise_205.jpg,1.0,a,3.0,33.0,0,9,9,9,,,,,,,,,,,,,,,,,,,76.59636159997899,None,,,,,,,,,81.6071977999818,82.61316049998277,82.60483009999734,None,l,0,1.925435600016499,1.003827260050457,None,,,,,,,,,,,,,,,,,77.75361889999476,78.05564459998277,78.09792589998688,78.40286509998259,78.45206089998828,78.75751309999032,78.75103709998075,79.05611149998731,79.09812889999012,79.40315559998271,79.4522958000016,79.75776680000126,79.75117339999997,80.05587449998711,80.09842569998,80.40301149999141,80.45261639999808,80.75750749997678,80.7511691999971,81.05569340000511,81.0978477000026,81.40292429999681,81.45212249999167,None,6969,001,2021_Jan_25_0204,new_STLI_updated,2020.2.10,143.67671590889637,
LZ_scrambled\LZ_scrambled_159.jpg,LZ_scrambled\LZ_scrambled_14.jpg,LZ_scrambled\LZ_scrambled_8.jpg,LZ_scrambled\LZ_scrambled_199.jpg,LZ_scrambled\LZ_scrambled_118.jpg,LZ_scrambled\LZ_scrambled_218.jpg,LZ_scrambled\LZ_scrambled_135.jpg,LZ_scrambled\LZ_scrambled_215.jpg,None,None,None,None,None,None,None,None,2.0,LZ_scrambled\LZ_scrambled_218.jpg,1.0,a,2.0,22.0,0,10,10,10,,,,,,,,,,,,,,,,,,,84.54281449998962,None,,,,,,,,,89.51447999998345,90.51640619998216,90.50791719998233,None,l,0,1.90228389998083,1.004170179949142,None,85.77565649998724,86.22933800000465,86.27176649999456,86.72242509998614,86.77169900000445,87.22247300000163,87.27169019999565,87.72240869997768,87.77184810000472,88.2224428000045,88.27175580000039,88.72242499998538,88.7718087999965,89.22252199999639,89.27178119999007,None,,,,,,,,,,,,,,,,,,,,,,,,,6969,001,2021_Jan_25_0204,new_STLI_updated,2020.2.10,143.67671590889637,
LZ_noise\LZ_noise_231.jpg,LZ_noise\LZ_noise_163.jpg,LZ_noise\LZ_noise_152.jpg,LZ_noise\LZ_noise_229.jpg,LZ_noise\LZ_noise_43.jpg,LZ_noise\LZ_noise_124.jpg,LZ_noise\LZ_noise_79.jpg,LZ_noise\LZ_noise_6.jpg,None,None,None,None,None,None,None,None,2.0,LZ_noise\LZ_noise_163.jpg,1.0,a,3.0,32.0,0,11,11,11,,,,,,,,,,,,,,,,,,,92.42184149997775,None,,,,,,,,,97.38050549998297,98.38470659998711,98.37594009999884,None,l,0,2.105835299997125,1.0043945600045845,None,93.51826879999135,93.97249149999698,93.99394489999395,94.44476149999537,94.49396819999674,94.94479449998471,94.99391649998142,95.44480689999182,95.49446289998014,95.94476280000526,95.9939158000052,96.4447639999853,96.49395689999801,96.94479869998759,96.99406919998,None,,,,,,,,,,,,,,,,,,,,,,,,,6969,001,2021_Jan_25_0204,new_STLI_updated,2020.2.10,143.67671590889637,
LZ_noise\LZ_noise_162.jpg,LZ_noise\LZ_noise_88.jpg,LZ_noise\LZ_noise_118.jpg,LZ_noise\LZ_noise_213.jpg,None,None,None,None,None,None,None,None,None,None,None,None,1.0,LZ_noise\LZ_noise_88.jpg,1.0,a,3.0,31.0,0,12,12,12,,,,,,,,,,,,,,,,,,,100.49044439999852,None,101.52508599997964,102.52877169998828,102.52259029998095,103.52227570000105,103.52227570000105,104.52230099998997,104.52230099998997,None,105.4989188000036,106.50262719998136,106.4874457999831,None,l,0,0.5387751999951433,0.9997536200098693,None,,,,,,,,,,,,,,,,,,,,,,,,,,,,,,,,,,,,,,,,,6969,001,2021_Jan_25_0204,new_STLI_updated,2020.2.10,143.67671590889637,
LZ_scrambled\LZ_scrambled_219.jpg,LZ_scrambled\LZ_scrambled_225.jpg,LZ_scrambled\LZ_scrambled_205.jpg,LZ_scrambled\LZ_scrambled_130.jpg,None,None,None,None,None,None,None,None,None,None,None,None,1.0,LZ_scrambled\LZ_scrambled_225.jpg,1.0,a,2.0,21.0,0,13,13,13,,,,,,,,,,,,,,,,,,,107.04020749998745,None,108.1539048999839,109.15390370000387,109.14810729998862,110.14730260000215,110.14730260000215,111.14751529999194,111.14751529999194,None,112.0636564999877,113.06653019998339,113.057298300002,None,l,0,1.5849007999931928,1.0044065400143154,None,,,,,,,,,,,,,,,,,,,,,,,,,,,,,,,,,,,,,,,,,6969,001,2021_Jan_25_0204,new_STLI_updated,2020.2.10,143.67671590889637,
LZ_noise\LZ_noise_177.jpg,LZ_noise\LZ_noise_145.jpg,LZ_noise\LZ_noise_228.jpg,LZ_noise\LZ_noise_185.jpg,LZ_noise\LZ_noise_95.jpg,LZ_noise\LZ_noise_78.jpg,LZ_noise\LZ_noise_131.jpg,LZ_noise\LZ_noise_15.jpg,None,None,None,None,None,None,None,None,2.0,LZ_noise\LZ_noise_130.jpg,0.0,l,3.0,32.0,0,14,14,14,,,,,,,,,,,,,,,,,,,114.65781809997861,None,,,,,,,,,119.63113629998406,120.6359836999909,120.62666660000104,None,l,1,1.0954248000052758,1.0057988799817394,None,115.72907849997864,116.18145869998261,116.21695229999023,116.66769049997674,116.71692239999538,117.16775719998986,117.21665129999747,117.66779310000129,117.71689869998954,118.16753999999491,118.21693289998802,118.66752489999635,118.71695390000241,119.16757299998426,119.21671519998927,None,,,,,,,,,,,,,,,,,,,,,,,,,6969,001,2021_Jan_25_0204,new_STLI_updated,2020.2.10,143.67671590889637,
LZ_natural\LZ_natural_99.jpg,LZ_natural\LZ_natural_195.jpg,LZ_natural\LZ_natural_93.jpg,LZ_natural\LZ_natural_56.jpg,None,None,None,None,None,None,None,None,None,None,None,None,1.0,LZ_natural\LZ_natural_193.jpg,0.0,l,1.0,11.0,0,15,15,15,,,,,,,,,,,,,,,,,,,121.7325822999992,None,122.81253219998325,123.81405379998614,123.80777679997846,124.80729939998128,124.80729939998128,125.80722659997991,125.80722659997991,None,126.75731079999241,127.76332209998509,127.75176569999894,None,l,1,1.145777600002475,1.005544440005906,None,,,,,,,,,,,,,,,,,,,,,,,,,,,,,,,,,,,,,,,,,6969,001,2021_Jan_25_0204,new_STLI_updated,2020.2.10,143.67671590889637,
LZ_noise\LZ_noise_71.jpg,LZ_noise\LZ_noise_77.jpg,LZ_noise\LZ_noise_222.jpg,LZ_noise\LZ_noise_174.jpg,LZ_noise\LZ_noise_42.jpg,LZ_noise\LZ_noise_76.jpg,LZ_noise\LZ_noise_161.jpg,LZ_noise\LZ_noise_122.jpg,None,None,None,None,None,None,None,None,2.0,LZ_noise\LZ_noise_42.jpg,1.0,a,3.0,32.0,0,16,16,16,,,,,,,,,,,,,,,,,,,128.9093389000045,None,,,,,,,,,133.86847109999508,134.87132249999559,134.86308599999757,None,l,0,0.34835970000131056,1.0056652200000826,None,130.01335329998983,130.46640119998483,130.50836129998788,130.95950679999078,131.00880069998675,131.459649299999,131.50864359998377,131.9598105000041,132.00877809998929,132.45936619999702,132.50867189999553,132.9594373999862,133.00864189999993,133.4596118000045,133.5087707999919,None,,,,,,,,,,,,,,,,,,,,,,,,,6969,001,2021_Jan_25_0204,new_STLI_updated,2020.2.10,143.67671590889637,
LZ_noise\LZ_noise_238.jpg,LZ_noise\LZ_noise_74.jpg,LZ_noise\LZ_noise_223.jpg,LZ_noise\LZ_noise_8.jpg,None,None,None,None,None,None,None,None,None,None,None,None,1.0,LZ_noise\LZ_noise_74.jpg,1.0,a,3.0,31.0,0,17,17,17,,,,,,,,,,,,,,,,,,,135.2260294999869,None,136.25919680000516,137.25868060000357,137.25217890000204,138.25160029999097,138.25160029999097,139.25207439999213,139.25207439999213,None,140.23520460000145,141.23900509998202,141.2308192999917,None,l,0,3.5721939000068232,1.000487460027216,None,,,,,,,,,,,,,,,,,,,,,,,,,,,,,,,,,,,,,,,,,6969,001,2021_Jan_25_0204,new_STLI_updated,2020.2.10,143.67671590889637,
LZ_natural\LZ_natural_80.jpg,LZ_natural\LZ_natural_44.jpg,LZ_natural\LZ_natural_64.jpg,LZ_natural\LZ_natural_94.jpg,None,None,None,None,None,None,None,None,None,None,None,None,1.0,LZ_natural\LZ_natural_222.jpg,0.0,l,1.0,11.0,0,18,18,18,,,,,,,,,,,,,,,,,,,144.81749230000423,None,145.87447499998962,146.8769546999829,146.86330949998228,147.86290009997902,147.86290009997902,148.86319000000367,148.86319000000367,None,149.83429030000116,150.83761129999766,150.8282338999852,None,l,1,1.0215664000133984,1.0050911799771711,None,,,,,,,,,,,,,,,,,,,,,,,,,,,,,,,,,,,,,,,,,6969,001,2021_Jan_25_0204,new_STLI_updated,2020.2.10,143.67671590889637,
LZ_natural\LZ_natural_233.jpg,LZ_natural\LZ_natural_20.jpg,LZ_natural\LZ_natural_132.jpg,LZ_natural\LZ_natural_159.jpg,None,None,None,None,None,None,None,None,None,None,None,None,1.0,LZ_natural\LZ_natural_132.jpg,1.0,a,1.0,11.0,0,19,19,19,,,,,,,,,,,,,,,,,,,151.8648819999944,None,152.92821809998713,153.93238980000024,153.9260008999845,154.92528379999567,154.92528379999567,155.92528329999186,155.92528329999186,None,156.87107140000444,157.87867769997683,157.86986679999973,None,l,0,1.731357000011485,1.0064804599969648,None,,,,,,,,,,,,,,,,,,,,,,,,,,,,,,,,,,,,,,,,,6969,001,2021_Jan_25_0204,new_STLI_updated,2020.2.10,143.67671590889637,
LZ_scrambled\LZ_scrambled_184.jpg,LZ_scrambled\LZ_scrambled_43.jpg,LZ_scrambled\LZ_scrambled_7.jpg,LZ_scrambled\LZ_scrambled_221.jpg,LZ_scrambled\LZ_scrambled_181.jpg,LZ_scrambled\LZ_scrambled_63.jpg,LZ_scrambled\LZ_scrambled_176.jpg,LZ_scrambled\LZ_scrambled_119.jpg,LZ_scrambled\LZ_scrambled_168.jpg,LZ_scrambled\LZ_scrambled_117.jpg,LZ_scrambled\LZ_scrambled_28.jpg,LZ_scrambled\LZ_scrambled_6.jpg,None,None,None,None,3.0,LZ_scrambled\LZ_scrambled_181.jpg,1.0,a,2.0,23.0,0,20,20,20,,,,,,,,,,,,,,,,,,,159.61050549999345,None,,,,,,,,,164.62566069999593,165.62800979998428,165.6203361999942,None,l,0,1.1491915000078734,1.0055626799876336,None,,,,,,,,,,,,,,,,,160.9810642999946,161.286323599983,161.31467550000525,161.61931589999585,161.66857660000096,161.9743216999923,161.9680054000055,162.2719114999927,162.3144248999888,162.6196859999909,162.6691273000033,162.97393559999182,162.96762700000545,163.2718748000043,163.31478909999714,163.61927349999314,163.66857509998954,163.97407789999852,163.9676141999953,164.27203639998334,164.31450179999229,None,None,None,6969,001,2021_Jan_25_0204,new_STLI_updated,2020.2.10,143.67671590889637,
LZ_noise\LZ_noise_50.jpg,LZ_noise\LZ_noise_97.jpg,LZ_noise\LZ_noise_117.jpg,LZ_noise\LZ_noise_167.jpg,LZ_noise\LZ_noise_27.jpg,LZ_noise\LZ_noise_201.jpg,LZ_noise\LZ_noise_84.jpg,LZ_noise\LZ_noise_137.jpg,None,None,None,None,None,None,None,None,2.0,LZ_noise\LZ_noise_122.jpg,0.0,l,3.0,32.0,0,21,21,21,,,,,,,,,,,,,,,,,,,166.78268390000449,None,,,,,,,,,171.74787859999924,172.75351069998578,172.73860059998697,None,l,1,1.4313926999748219,1.0029857199988328,None,167.87980239998433,168.33518029999686,168.3770744999929,168.8281699999934,168.8772084999946,169.3282857000013,169.37733029999072,169.8280990999774,169.87731630000053,170.32825989997946,170.37736179999774,170.82791609998094,170.87734979999368,171.32818509999197,171.3774676999892,None,,,,,,,,,,,,,,,,,,,,,,,,,6969,001,2021_Jan_25_0204,new_STLI_updated,2020.2.10,143.67671590889637,
LZ_scrambled\LZ_scrambled_232.jpg,LZ_scrambled\LZ_scrambled_39.jpg,LZ_scrambled\LZ_scrambled_189.jpg,LZ_scrambled\LZ_scrambled_137.jpg,LZ_scrambled\LZ_scrambled_13.jpg,LZ_scrambled\LZ_scrambled_108.jpg,LZ_scrambled\LZ_scrambled_29.jpg,LZ_scrambled\LZ_scrambled_170.jpg,None,None,None,None,None,None,None,None,2.0,LZ_scrambled\LZ_scrambled_108.jpg,1.0,a,2.0,22.0,0,22,22,22,,,,,,,,,,,,,,,,,,,174.1812818000035,None,,,,,,,,,179.15598630000022,180.15673389998847,180.14831960000447,None,l,0,0.23865400001523085,1.0029771399858873,None,175.41300549998414,175.8629272999824,175.90536209999118,176.3560368999897,176.4054088999983,176.8560849999776,176.90517640000326,177.35595949998242,177.40547909997986,177.85607399998116,177.9055692999973,178.35602439998183,178.40543129999423,178.85583610000322,178.90558859999874,None,,,,,,,,,,,,,,,,,,,,,,,,,6969,001,2021_Jan_25_0204,new_STLI_updated,2020.2.10,143.67671590889637,
LZ_natural\LZ_natural_157.jpg,LZ_natural\LZ_natural_147.jpg,LZ_natural\LZ_natural_84.jpg,LZ_natural\LZ_natural_154.jpg,LZ_natural\LZ_natural_133.jpg,LZ_natural\LZ_natural_131.jpg,LZ_natural\LZ_natural_235.jpg,LZ_natural\LZ_natural_102.jpg,None,None,None,None,None,None,None,None,2.0,LZ_natural\LZ_natural_236.jpg,0.0,l,1.0,12.0,0,23,23,23,,,,,,,,,,,,,,,,,,,180.40065359999426,None,,,,,,,,,185.3723143999814,186.37789079998038,186.3634946999955,None,l,1,0.34276840000529774,1.003171679971274,None,181.5165183999925,181.96715300000506,181.99560199998086,182.44617179999477,182.4952673999942,182.94613870000467,182.99557030000142,183.44641330000013,183.49564449998434,183.94636669999454,183.99545560000115,184.44636199998786,184.49568510000245,184.94623129998217,184.99540159999742,None,,,,,,,,,,,,,,,,,,,,,,,,,6969,001,2021_Jan_25_0204,new_STLI_updated,2020.2.10,143.67671590889637,
LZ_scrambled\LZ_scrambled_79.jpg,LZ_scrambled\LZ_scrambled_123.jpg,LZ_scrambled\LZ_scrambled_9.jpg,LZ_scrambled\LZ_scrambled_193.jpg,LZ_scrambled\LZ_scrambled_155.jpg,LZ_scrambled\LZ_scrambled_51.jpg,LZ_scrambled\LZ_scrambled_195.jpg,LZ_scrambled\LZ_scrambled_111.jpg,None,None,None,None,None,None,None,None,2.0,LZ_scrambled\LZ_scrambled_123.jpg,1.0,a,2.0,22.0,0,24,24,24,,,,,,,,,,,,,,,,,,,186.72086459997809,None,,,,,,,,,191.6993261000025,192.70729989997926,192.6902218000032,None,l,0,0.33581769999000244,1.0019352400267962,None,187.89056249998976,188.34223939999356,188.37789249999332,188.82827410000027,188.87780349998502,189.32808559999103,189.37735739999334,189.8284921000013,189.87783909999416,190.32831469998928,190.3776117999805,190.8282188999874,190.87767869999516,191.32822259998647,191.37794469998335,None,,,,,,,,,,,,,,,,,,,,,,,,,6969,001,2021_Jan_25_0204,new_STLI_updated,2020.2.10,143.67671590889637,
LZ_noise\LZ_noise_75.jpg,LZ_noise\LZ_noise_107.jpg,LZ_noise\LZ_noise_46.jpg,LZ_noise\LZ_noise_10.jpg,None,None,None,None,None,None,None,None,None,None,None,None,1.0,LZ_noise\LZ_noise_16.jpg,0.0,l,3.0,31.0,0,25,25,25,,,,,,,,,,,,,,,,,,,193.03676869999617,None,194.08961389999604,195.09290479999618,195.0863860999816,196.086258299998,196.086258299998,197.08607209997717,197.08607209997717,None,198.04667019998305,199.054610399995,199.03725199998007,None,l,1,1.9572274000092875,1.0033402200206183,None,,,,,,,,,,,,,,,,,,,,,,,,,,,,,,,,,,,,,,,,,6969,001,2021_Jan_25_0204,new_STLI_updated,2020.2.10,143.67671590889637,
LZ_natural\LZ_natural_199.jpg,LZ_natural\LZ_natural_98.jpg,LZ_natural\LZ_natural_176.jpg,LZ_natural\LZ_natural_164.jpg,None,None,None,None,None,None,None,None,None,None,None,None,1.0,LZ_natural\LZ_natural_66.jpg,0.0,l,1.0,11.0,0,26,26,26,,,,,,,,,,,,,,,,,,,201.00730009999825,None,202.04058179998538,203.04437970000436,203.03788669998175,204.0375967999862,204.0375967999862,205.03751049999846,205.03751049999846,None,206.02822749997722,207.0327073999797,207.0233300999971,None,l,1,0.562653600005433,1.0010791799868457,None,,,,,,,,,,,,,,,,,,,,,,,,,,,,,,,,,,,,,,,,,6969,001,2021_Jan_25_0204,new_STLI_updated,2020.2.10,143.67671590889637,
LZ_natural\LZ_natural_196.jpg,LZ_natural\LZ_natural_58.jpg,LZ_natural\LZ_natural_55.jpg,LZ_natural\LZ_natural_115.jpg,LZ_natural\LZ_natural_54.jpg,LZ_natural\LZ_natural_110.jpg,LZ_natural\LZ_natural_202.jpg,LZ_natural\LZ_natural_103.jpg,LZ_natural\LZ_natural_190.jpg,LZ_natural\LZ_natural_22.jpg,LZ_natural\LZ_natural_138.jpg,LZ_natural\LZ_natural_185.jpg,None,None,None,None,3.0,LZ_natural\LZ_natural_58.jpg,1.0,a,1.0,13.0,0,27,27,27,,,,,,,,,,,,,,,,,,,207.59609139998793,None,,,,,,,,,212.6042560999922,213.60783110000193,213.59302849997766,None,l,0,0.7303604999906383,1.0002136200200766,None,,,,,,,,,,,,,,,,,208.8209543999983,209.12034229998244,209.16932590000215,209.47431669998332,209.51680809998652,209.82213309998042,209.8158605999779,210.1204332000052,210.1695800999878,210.47438719999627,210.51644079998368,210.8222270999977,210.81561319998582,211.12040260000504,211.16973490000237,211.47422629999346,211.51678959999117,211.82221039998694,211.81581810000353,212.12034019999555,212.16964179999195,212.4747032999876,212.52283770000213,None,6969,001,2021_Jan_25_0204,new_STLI_updated,2020.2.10,143.67671590889637,
LZ_noise\LZ_noise_5.jpg,LZ_noise\LZ_noise_68.jpg,LZ_noise\LZ_noise_44.jpg,LZ_noise\LZ_noise_58.jpg,LZ_noise\LZ_noise_73.jpg,LZ_noise\LZ_noise_82.jpg,LZ_noise\LZ_noise_232.jpg,LZ_noise\LZ_noise_123.jpg,None,None,None,None,None,None,None,None,2.0,LZ_noise\LZ_noise_82.jpg,1.0,a,3.0,32.0,0,28,28,28,,,,,,,,,,,,,,,,,,,214.33753999997862,None,,,,,,,,,219.29660040000454,220.30259029997978,220.29489359998843,None,l,0,0.26687370002036914,1.0054158600105438,None,215.4372713000048,215.89108410000335,215.9124770000053,216.36339079999016,216.41239230000065,216.86363949999213,216.9128694999963,217.36328469999717,217.4125897999911,217.86355849998654,217.9128109999874,218.3632250999799,218.4127518000023,218.8634964999801,218.91276690000086,None,,,,,,,,,,,,,,,,,,,,,,,,,6969,001,2021_Jan_25_0204,new_STLI_updated,2020.2.10,143.67671590889637,
LZ_natural\LZ_natural_41.jpg,LZ_natural\LZ_natural_124.jpg,LZ_natural\LZ_natural_172.jpg,LZ_natural\LZ_natural_5.jpg,LZ_natural\LZ_natural_230.jpg,LZ_natural\LZ_natural_107.jpg,LZ_natural\LZ_natural_27.jpg,LZ_natural\LZ_natural_191.jpg,None,None,None,None,None,None,None,None,2.0,LZ_natural\LZ_natural_162.jpg,0.0,l,1.0,12.0,0,29,29,29,,,,,,,,,,,,,,,,,,,220.57400379999308,None,,,,,,,,,225.54121110000415,226.54729629997746,226.53777279998758,None,l,1,0.44804499999736436,1.0023605200112797,None,221.64365559999715,222.09282729998813,222.1419700999977,222.592816999997,222.64182219997747,223.0925468999776,223.14152189999004,223.59285009998712,223.6415655000019,224.09255979998852,224.14160410000477,224.59290029999102,224.64198059999035,225.0926472999854,225.14189899998019,None,,,,,,,,,,,,,,,,,,,,,,,,,6969,001,2021_Jan_25_0204,new_STLI_updated,2020.2.10,143.67671590889637,
LZ_natural\LZ_natural_43.jpg,LZ_natural\LZ_natural_113.jpg,LZ_natural\LZ_natural_72.jpg,LZ_natural\LZ_natural_31.jpg,LZ_natural\LZ_natural_171.jpg,LZ_natural\LZ_natural_39.jpg,LZ_natural\LZ_natural_189.jpg,LZ_natural\LZ_natural_200.jpg,LZ_natural\LZ_natural_151.jpg,LZ_natural\LZ_natural_6.jpg,LZ_natural\LZ_natural_139.jpg,LZ_natural\LZ_natural_52.jpg,None,None,None,None,3.0,LZ_natural\LZ_natural_57.jpg,0.0,l,1.0,13.0,0,30,30,30,,,,,,,,,,,,,,,,,,,226.9969426000025,None,,,,,,,,,232.01577239998733,233.0191006999812,233.0098517999868,None,l,1,0.38364340001135133,1.0052443799795583,None,,,,,,,,,,,,,,,,,228.1352219999826,228.44010350000462,228.4753479999781,228.7805159999989,228.8294157999917,229.1348964999779,229.12842019999516,229.43297739999252,229.47501939997892,229.78017459998955,229.82927029998973,230.13469639999676,230.12857229998917,230.4331706999801,230.4753598999814,230.7804344999895,230.82955140000558,231.1349107999995,231.12842079999973,231.4331750999845,231.4753296999843,231.7805126000021,231.8293943000026,None,6969,001,2021_Jan_25_0204,new_STLI_updated,2020.2.10,143.67671590889637,
LZ_noise\LZ_noise_112.jpg,LZ_noise\LZ_noise_165.jpg,LZ_noise\LZ_noise_29.jpg,LZ_noise\LZ_noise_28.jpg,LZ_noise\LZ_noise_101.jpg,LZ_noise\LZ_noise_103.jpg,LZ_noise\LZ_noise_225.jpg,LZ_noise\LZ_noise_239.jpg,None,None,None,None,None,None,None,None,2.0,LZ_noise\LZ_noise_212.jpg,0.0,l,3.0,32.0,0,31,31,31,,,,,,,,,,,,,,,,,,,233.40659420000156,None,,,,,,,,,238.37040119999438,239.3733650999784,239.36439189998782,None,l,1,1.0848490000062156,1.0043667800200637,None,234.50787430000491,234.9609506999841,234.99616320000496,235.4468418000033,235.4959760000056,235.94676259998232,235.99639210000169,236.4471411999839,236.49604759999784,236.94696129998192,236.9959436999925,237.44682829998783,237.49610129999928,237.94694209998124,237.99626899999566,None,,,,,,,,,,,,,,,,,,,,,,,,,6969,001,2021_Jan_25_0204,new_STLI_updated,2020.2.10,143.67671590889637,
LZ_noise\LZ_noise_206.jpg,LZ_noise\LZ_noise_23.jpg,LZ_noise\LZ_noise_226.jpg,LZ_noise\LZ_noise_85.jpg,None,None,None,None,None,None,None,None,None,None,None,None,1.0,LZ_noise\LZ_noise_179.jpg,0.0,l,3.0,31.0,0,32,32,32,,,,,,,,,,,,,,,,,,,240.46325279999292,None,241.5114859000023,242.5100603000028,242.50371389999054,243.5033882999851,243.5033882999851,244.50336309999693,244.50336309999693,None,245.47823579999385,246.48504179998417,246.47537979998742,None,l,1,3.1507502000022214,1.003232620016206,None,,,,,,,,,,,,,,,,,,,,,,,,,,,,,,,,,,,,,,,,,6969,001,2021_Jan_25_0204,new_STLI_updated,2020.2.10,143.67671590889637,
LZ_scrambled\LZ_scrambled_209.jpg,LZ_scrambled\LZ_scrambled_152.jpg,LZ_scrambled\LZ_scrambled_157.jpg,LZ_scrambled\LZ_scrambled_107.jpg,LZ_scrambled\LZ_scrambled_52.jpg,LZ_scrambled\LZ_scrambled_32.jpg,LZ_scrambled\LZ_scrambled_207.jpg,LZ_scrambled\LZ_scrambled_183.jpg,LZ_scrambled\LZ_scrambled_148.jpg,LZ_scrambled\LZ_scrambled_164.jpg,LZ_scrambled\LZ_scrambled_167.jpg,LZ_scrambled\LZ_scrambled_86.jpg,None,None,None,None,3.0,LZ_scrambled\LZ_scrambled_57.jpg,0.0,l,2.0,23.0,0,33,33,33,,,,,,,,,,,,,,,,,,,249.6403963000048,None,,,,,,,,,254.6796825999918,255.6861271999951,255.6773092999938,None,l,1,0.6763976999791339,1.0060682000475936,None,,,,,,,,,,,,,,,,,250.994489100005,251.29422859998886,251.33010309998645,251.63469589999295,251.68396739999298,251.98943950000103,251.98312009999063,252.28760879999027,252.33001219999278,252.63487409998197,252.68425859999843,252.98945659998572,252.98331219999818,253.28786079998827,253.32970549998572,253.63463570000022,253.68407839999418,253.98919150000438,253.9833493999904,254.2874271000037,254.3299865000008,254.63486879999982,None,None,6969,001,2021_Jan_25_0204,new_STLI_updated,2020.2.10,143.67671590889637,
LZ_scrambled\LZ_scrambled_161.jpg,LZ_scrambled\LZ_scrambled_66.jpg,LZ_scrambled\LZ_scrambled_36.jpg,LZ_scrambled\LZ_scrambled_89.jpg,None,None,None,None,None,None,None,None,None,None,None,None,1.0,LZ_scrambled\LZ_scrambled_111.jpg,0.0,l,2.0,21.0,0,34,34,34,,,,,,,,,,,,,,,,,,,256.3622289999912,None,257.46046259999275,258.46171479998156,258.45544229997904,259.455098299979,259.455098299979,260.4547959000047,260.4547959000047,None,261.38542109998525,262.3874995999795,262.37857079997775,None,l,1,0.8470704999926966,1.0054500399855897,None,,,,,,,,,,,,,,,,,,,,,,,,,,,,,,,,,,,,,,,,,6969,001,2021_Jan_25_0204,new_STLI_updated,2020.2.10,143.67671590889637,
LZ_noise\LZ_noise_7.jpg,LZ_noise\LZ_noise_214.jpg,LZ_noise\LZ_noise_171.jpg,LZ_noise\LZ_noise_210.jpg,None,None,None,None,None,None,None,None,None,None,None,None,1.0,LZ_noise\LZ_noise_49.jpg,0.0,l,3.0,31.0,0,35,35,35,,,,,,,,,,,,,,,,,,,263.235311299999,None,264.29398389998823,265.2951795999834,265.28181570000015,266.28156829997897,266.28156829997897,267.2812554999837,267.2812554999837,None,268.2499140999862,269.2545912999776,269.2465273999842,None,l,1,0.44290530000580475,1.0063754200236872,None,,,,,,,,,,,,,,,,,,,,,,,,,,,,,,,,,,,,,,,,,6969,001,2021_Jan_25_0204,new_STLI_updated,2020.2.10,143.67671590889637,
LZ_natural\LZ_natural_96.jpg,LZ_natural\LZ_natural_220.jpg,LZ_natural\LZ_natural_104.jpg,LZ_natural\LZ_natural_184.jpg,None,None,None,None,None,None,None,None,None,None,None,None,1.0,LZ_natural\LZ_natural_51.jpg,0.0,l,1.0,11.0,0,36,36,36,,,,,,,,,,,,,,,,,,,269.7047429999802,None,270.74036949998117,271.73922749998746,271.7327959999966,272.7326013999991,272.7326013999991,273.73297389998334,273.73297389998334,None,274.7315408999857,275.73473060000106,275.725815999991,None,l,1,3.395698000007542,1.0046079400053713,None,,,,,,,,,,,,,,,,,,,,,,,,,,,,,,,,,,,,,,,,,6969,001,2021_Jan_25_0204,new_STLI_updated,2020.2.10,143.67671590889637,
LZ_scrambled\LZ_scrambled_58.jpg,LZ_scrambled\LZ_scrambled_71.jpg,LZ_scrambled\LZ_scrambled_56.jpg,LZ_scrambled\LZ_scrambled_17.jpg,LZ_scrambled\LZ_scrambled_12.jpg,LZ_scrambled\LZ_scrambled_237.jpg,LZ_scrambled\LZ_scrambled_154.jpg,LZ_scrambled\LZ_scrambled_150.jpg,LZ_scrambled\LZ_scrambled_216.jpg,LZ_scrambled\LZ_scrambled_2.jpg,LZ_scrambled\LZ_scrambled_114.jpg,LZ_scrambled\LZ_scrambled_226.jpg,None,None,None,None,3.0,LZ_scrambled\LZ_scrambled_204.jpg,0.0,l,2.0,23.0,0,37,37,37,,,,,,,,,,,,,,,,,,,279.1321087999968,None,,,,,,,,,284.15783839998767,285.1656080999819,285.14961969997967,None,l,1,1.3001139000116382,1.000686940009473,None,,,,,,,,,,,,,,,,,280.4841700999823,280.78755119998823,280.82313139998587,281.1281732999778,281.1708902999817,281.47571969998535,281.4696335000044,281.77420679997886,281.82346059998963,282.128226300003,282.1703205999802,282.4757180000015,282.4698841999925,282.7739297999942,282.82335890000104,283.12794179999037,283.17051349999383,283.4760833999899,283.46938239998417,283.77414259998477,283.8232486000052,284.12813409999944,None,None,6969,001,2021_Jan_25_0204,new_STLI_updated,2020.2.10,143.67671590889637,
LZ_noise\LZ_noise_94.jpg,LZ_noise\LZ_noise_69.jpg,LZ_noise\LZ_noise_61.jpg,LZ_noise\LZ_noise_114.jpg,LZ_noise\LZ_noise_128.jpg,LZ_noise\LZ_noise_136.jpg,LZ_noise\LZ_noise_100.jpg,LZ_noise\LZ_noise_9.jpg,None,None,None,None,None,None,None,None,2.0,LZ_noise\LZ_noise_61.jpg,1.0,a,3.0,32.0,0,38,38,38,,,,,,,,,,,,,,,,,,,286.4604763999814,None,,,,,,,,,291.4186594999919,292.4227329999849,292.4137374999991,None,l,0,1.2211517999821808,1.0028202600078657,None,287.56072290000156,288.00986329998705,288.0520817999786,288.5035341999901,288.55261309997877,289.00303579997853,289.05205869997735,289.50335579999955,289.5525343999907,290.00358239997877,290.05247529997723,290.5032707999926,290.5522028999985,291.00335869999253,291.0523436999938,None,,,,,,,,,,,,,,,,,,,,,,,,,6969,001,2021_Jan_25_0204,new_STLI_updated,2020.2.10,143.67671590889637,
LZ_noise\LZ_noise_2.jpg,LZ_noise\LZ_noise_160.jpg,LZ_noise\LZ_noise_12.jpg,LZ_noise\LZ_noise_141.jpg,None,None,None,None,None,None,None,None,None,None,None,None,1.0,LZ_noise\LZ_noise_64.jpg,0.0,l,3.0,31.0,0,39,39,39,,,,,,,,,,,,,,,,,,,293.64694529998815,None,294.6963977999985,295.6985871999932,295.6918847000052,296.69159319999744,296.69159319999744,297.69170549997943,297.69170549997943,None,298.6687650999811,299.67303579999134,299.66355369999656,None,l,1,0.28445059998193756,1.0059842400078196,None,,,,,,,,,,,,,,,,,,,,,,,,,,,,,,,,,,,,,,,,,6969,001,2021_Jan_25_0204,new_STLI_updated,2020.2.10,143.67671590889637,
LZ_scrambled\LZ_scrambled_217.jpg,LZ_scrambled\LZ_scrambled_190.jpg,LZ_scrambled\LZ_scrambled_67.jpg,LZ_scrambled\LZ_scrambled_15.jpg,LZ_scrambled\LZ_scrambled_81.jpg,LZ_scrambled\LZ_scrambled_3.jpg,LZ_scrambled\LZ_scrambled_70.jpg,LZ_scrambled\LZ_scrambled_1.jpg,LZ_scrambled\LZ_scrambled_61.jpg,LZ_scrambled\LZ_scrambled_196.jpg,LZ_scrambled\LZ_scrambled_62.jpg,LZ_scrambled\LZ_scrambled_100.jpg,None,None,None,None,3.0,LZ_scrambled\LZ_scrambled_169.jpg,0.0,l,2.0,23.0,0,40,40,40,,,,,,,,,,,,,,,,,,,299.96046979998937,None,,,,,,,,,304.9922788999975,305.99963320000097,305.9906813999987,None,l,1,1.5466162999800872,1.0055335400102194,None,,,,,,,,,,,,,,,,,301.30318049999187,301.60750969999935,301.64332730000024,301.94817570000305,301.9970575000043,302.30264469998656,302.2964537999942,302.6004511999781,302.64311169998837,302.9479604999942,302.99748059999547,303.3023930999916,303.2962053999945,303.60072409998975,303.64285350000137,303.94776690000435,303.9974615999963,304.3024217999773,304.29626629999257,304.60081780000473,304.6432070999872,304.9477740000002,None,None,6969,001,2021_Jan_25_0204,new_STLI_updated,2020.2.10,143.67671590889637,
LZ_noise\LZ_noise_216.jpg,LZ_noise\LZ_noise_62.jpg,LZ_noise\LZ_noise_60.jpg,LZ_noise\LZ_noise_169.jpg,LZ_noise\LZ_noise_180.jpg,LZ_noise\LZ_noise_184.jpg,LZ_noise\LZ_noise_98.jpg,LZ_noise\LZ_noise_230.jpg,LZ_noise\LZ_noise_155.jpg,LZ_noise\LZ_noise_149.jpg,LZ_noise\LZ_noise_215.jpg,LZ_noise\LZ_noise_104.jpg,None,None,None,None,3.0,LZ_noise\LZ_noise_149.jpg,1.0,a,3.0,33.0,0,41,41,41,,,,,,,,,,,,,,,,,,,307.55260309998994,None,,,,,,,,,312.5665950999828,313.5667955999961,313.55943599998136,None,l,0,1.08217350000632,1.005980220012134,None,,,,,,,,,,,,,,,,,308.69530329998815,308.9965258000011,309.0112109000038,309.3159735999943,309.3580888999859,309.663834099978,309.65723409998463,309.9617871999799,310.0110505000048,310.3162880000018,310.3583899999794,310.66386569998576,310.6574209999817,310.96178309997777,311.0109536999953,311.31602009999915,311.3582131000003,311.6636140999908,311.6573728999938,311.9617527999799,312.01109459999134,312.31631299998844,312.3584645999945,None,6969,001,2021_Jan_25_0204,new_STLI_updated,2020.2.10,143.67671590889637,
LZ_natural\LZ_natural_47.jpg,LZ_natural\LZ_natural_173.jpg,LZ_natural\LZ_natural_119.jpg,LZ_natural\LZ_natural_227.jpg,None,None,None,None,None,None,None,None,None,None,None,None,1.0,LZ_natural\LZ_natural_119.jpg,1.0,a,1.0,11.0,0,42,42,42,,,,,,,,,,,,,,,,,,,314.6562838999962,None,315.7084496000025,316.71226629999,316.70579779997934,317.7053455999994,317.7053455999994,318.7057235999964,318.7057235999964,None,319.66715159997693,320.6728427000053,320.6640720999858,None,l,0,1.9064806000096723,1.0033004599972628,None,,,,,,,,,,,,,,,,,,,,,,,,,,,,,,,,,,,,,,,,,6969,001,2021_Jan_25_0204,new_STLI_updated,2020.2.10,143.67671590889637,
LZ_noise\LZ_noise_121.jpg,LZ_noise\LZ_noise_102.jpg,LZ_noise\LZ_noise_34.jpg,LZ_noise\LZ_noise_31.jpg,LZ_noise\LZ_noise_164.jpg,LZ_noise\LZ_noise_21.jpg,LZ_noise\LZ_noise_143.jpg,LZ_noise\LZ_noise_132.jpg,None,None,None,None,None,None,None,None,2.0,LZ_noise\LZ_noise_21.jpg,1.0,a,3.0,32.0,0,43,43,43,,,,,,,,,,,,,,,,,,,322.58552059999784,None,,,,,,,,,327.54395749999094,328.54726110000047,328.53901529998984,None,l,0,0.27853959999629296,1.000842460023705,None,323.68039319998934,324.13599029998295,324.17808069998864,324.6286637999874,324.67782319997787,325.12889089999953,325.17789019999327,325.6288619999832,325.677681799978,326.1286687999964,326.17804060000344,326.62890149999293,326.6780853999953,327.1286766999983,327.1778289999929,None,,,,,,,,,,,,,,,,,,,,,,,,,6969,001,2021_Jan_25_0204,new_STLI_updated,2020.2.10,143.67671590889637,
LZ_natural\LZ_natural_101.jpg,LZ_natural\LZ_natural_83.jpg,LZ_natural\LZ_natural_17.jpg,LZ_natural\LZ_natural_148.jpg,None,None,None,None,None,None,None,None,None,None,None,None,1.0,LZ_natural\LZ_natural_200.jpg,0.0,l,1.0,11.0,0,44,44,44,,,,,,,,,,,,,,,,,,,328.82735649999813,None,329.87570589999086,330.87938939998276,330.8729409999796,331.87266850000015,331.87266850000015,332.8725863999862,332.8725863999862,None,333.8313178999815,334.8326357000042,334.82398159999866,None,l,1,1.9138395999907516,1.0010499600321054,None,,,,,,,,,,,,,,,,,,,,,,,,,,,,,,,,,,,,,,,,,6969,001,2021_Jan_25_0204,new_STLI_updated,2020.2.10,143.67671590889637,
LZ_scrambled\LZ_scrambled_33.jpg,LZ_scrambled\LZ_scrambled_178.jpg,LZ_scrambled\LZ_scrambled_151.jpg,LZ_scrambled\LZ_scrambled_162.jpg,None,None,None,None,None,None,None,None,None,None,None,None,1.0,LZ_scrambled\LZ_scrambled_151.jpg,1.0,a,2.0,21.0,0,45,45,45,,,,,,,,,,,,,,,,,,,336.7524136999855,None,337.8548066999938,338.85858249999,338.8453895999992,339.84510429998045,339.84510429998045,340.8450606999977,340.8450606999977,None,341.77166269999,342.77672500000335,342.76869389999774,None,l,0,0.23308089998317882,1.0050095800252166,None,,,,,,,,,,,,,,,,,,,,,,,,,,,,,,,,,,,,,,,,,6969,001,2021_Jan_25_0204,new_STLI_updated,2020.2.10,143.67671590889637,
LZ_noise\LZ_noise_116.jpg,LZ_noise\LZ_noise_86.jpg,LZ_noise\LZ_noise_139.jpg,LZ_noise\LZ_noise_106.jpg,LZ_noise\LZ_noise_41.jpg,LZ_noise\LZ_noise_189.jpg,LZ_noise\LZ_noise_99.jpg,LZ_noise\LZ_noise_175.jpg,LZ_noise\LZ_noise_159.jpg,LZ_noise\LZ_noise_190.jpg,LZ_noise\LZ_noise_191.jpg,LZ_noise\LZ_noise_105.jpg,None,None,None,None,3.0,LZ_noise\LZ_noise_142.jpg,0.0,l,3.0,33.0,0,46,46,46,,,,,,,,,,,,,,,,,,,343.01740749998135,None,,,,,,,,,348.0459817999799,349.0485301000008,349.03228739998303,353.0320909000002,l,1,8.193167699995684,0.9998464400123339,None,,,,,,,,,,,,,,,,,344.1481777000008,344.448230399983,344.4910156999831,344.7958878999925,344.83796469998197,345.1432209999766,345.13682369998423,345.44144259998575,345.49072249999153,345.7956017999968,345.8378326999955,346.14348999998765,346.13684949997696,346.4416618999967,346.4906146999856,346.79545710000093,346.83787449999363,347.14351539997733,347.13691760000074,347.4412789999915,347.4906736999983,347.795558599988,347.8380577999924,None,6969,001,2021_Jan_25_0204,new_STLI_updated,2020.2.10,143.67671590889637,
LZ_scrambled\LZ_scrambled_57.jpg,LZ_scrambled\LZ_scrambled_229.jpg,LZ_scrambled\LZ_scrambled_60.jpg,LZ_scrambled\LZ_scrambled_49.jpg,LZ_scrambled\LZ_scrambled_78.jpg,LZ_scrambled\LZ_scrambled_94.jpg,LZ_scrambled\LZ_scrambled_55.jpg,LZ_scrambled\LZ_scrambled_138.jpg,None,None,None,None,None,None,None,None,2.0,LZ_scrambled\LZ_scrambled_229.jpg,1.0,a,2.0,22.0,0,47,47,47,,,,,,,,,,,,,,,,,,,357.2366204999853,None,,,,,,,,,362.21384989999933,363.21533519998775,363.2064640999888,None,l,0,1.2669233999913558,1.0017292400007136,None,358.4791673999862,358.9277051999816,358.9702053999936,359.42108830000507,359.4702084999881,359.9208335999865,359.9700352999789,360.42080009999336,360.47037959998124,360.92086069998913,360.9704296999844,361.42073389998404,361.47036509998725,361.92102179999347,361.97024349999265,None,,,,,,,,,,,,,,,,,,,,,,,,,6969,001,2021_Jan_25_0204,new_STLI_updated,2020.2.10,143.67671590889637,
LZ_noise\LZ_noise_130.jpg,LZ_noise\LZ_noise_147.jpg,LZ_noise\LZ_noise_87.jpg,LZ_noise\LZ_noise_178.jpg,LZ_noise\LZ_noise_30.jpg,LZ_noise\LZ_noise_158.jpg,LZ_noise\LZ_noise_38.jpg,LZ_noise\LZ_noise_89.jpg,None,None,None,None,None,None,None,None,2.0,LZ_noise\LZ_noise_38.jpg,1.0,a,3.0,32.0,0,48,48,48,,,,,,,,,,,,,,,,,,,364.4894327999791,None,,,,,,,,,369.4480878000031,370.45169799998985,370.4422840999905,None,l,0,0.2559054000012111,1.0009122600022238,None,365.58827959999326,366.03915209998377,366.06726109999,366.51822639998863,366.5673143999884,367.0183840999962,367.0674785999872,367.5181120999914,367.5673259999894,368.01810529999784,368.0672770999954,368.518376299995,368.56728789999033,369.0185024999955,369.0675038000045,None,,,,,,,,,,,,,,,,,,,,,,,,,6969,001,2021_Jan_25_0204,new_STLI_updated,2020.2.10,143.67671590889637,
LZ_scrambled\LZ_scrambled_158.jpg,LZ_scrambled\LZ_scrambled_80.jpg,LZ_scrambled\LZ_scrambled_73.jpg,LZ_scrambled\LZ_scrambled_41.jpg,LZ_scrambled\LZ_scrambled_132.jpg,LZ_scrambled\LZ_scrambled_19.jpg,LZ_scrambled\LZ_scrambled_4.jpg,LZ_scrambled\LZ_scrambled_113.jpg,LZ_scrambled\LZ_scrambled_240.jpg,LZ_scrambled\LZ_scrambled_143.jpg,LZ_scrambled\LZ_scrambled_77.jpg,LZ_scrambled\LZ_scrambled_210.jpg,None,None,None,None,3.0,LZ_scrambled\LZ_scrambled_77.jpg,1.0,a,2.0,23.0,0,49,49,49,,,,,,,,,,,,,,,,,,,370.713239100005,None,,,,,,,,,375.73713890000363,376.7428227000055,376.7346116999979,None,l,0,0.5556815000018105,1.0057787799742073,None,,,,,,,,,,,,,,,,,371.9927459000028,372.295967699989,372.32448169999407,372.62933969998267,372.6788613999961,372.9841454999987,372.97790979998535,373.2821136999992,373.3244075999828,373.6296086999937,373.67869459997746,373.9841394999821,373.97795839997707,374.2820744999917,374.32478239998454,374.62953689999995,374.6787343999895,374.9838858000003,374.9777233999921,375.275813699991,375.3245748000045,375.6295573999814,375.6785094999941,None,6969,001,2021_Jan_25_0204,new_STLI_updated,2020.2.10,143.67671590889637,
LZ_natural\LZ_natural_78.jpg,LZ_natural\LZ_natural_81.jpg,LZ_natural\LZ_natural_170.jpg,LZ_natural\LZ_natural_224.jpg,LZ_natural\LZ_natural_3.jpg,LZ_natural\LZ_natural_223.jpg,LZ_natural\LZ_natural_121.jpg,LZ_natural\LZ_natural_91.jpg,LZ_natural\LZ_natural_111.jpg,LZ_natural\LZ_natural_160.jpg,LZ_natural\LZ_natural_150.jpg,LZ_natural\LZ_natural_180.jpg,None,None,None,None,3.0,LZ_natural\LZ_natural_17.jpg,0.0,l,1.0,13.0,0,50,50,50,,,,,,,,,,,,,,,,,,,377.3031320000009,None,,,,,,,,,382.3169639999978,383.31976389998454,383.31054229999427,None,l,1,0.5708446000062395,1.0002389600267634,None,,,,,,,,,,,,,,,,,378.46303620000253,378.7680795999768,378.8034262000001,379.1085769000056,379.15792800000054,379.4634395999892,379.4569949999859,379.76127639997867,379.80395179998595,380.1087208999961,380.15794350000215,380.46337199999834,380.45687900000485,380.7613926999911,380.8035738999897,381.1088046999939,381.15809359998093,381.4631557999819,381.45699519998743,381.7630009999848,381.80364129997906,382.10864920000313,382.15796829998726,None,6969,001,2021_Jan_25_0204,new_STLI_updated,2020.2.10,143.67671590889637,
LZ_scrambled\LZ_scrambled_59.jpg,LZ_scrambled\LZ_scrambled_11.jpg,LZ_scrambled\LZ_scrambled_230.jpg,LZ_scrambled\LZ_scrambled_156.jpg,LZ_scrambled\LZ_scrambled_228.jpg,LZ_scrambled\LZ_scrambled_134.jpg,LZ_scrambled\LZ_scrambled_42.jpg,LZ_scrambled\LZ_scrambled_177.jpg,LZ_scrambled\LZ_scrambled_31.jpg,LZ_scrambled\LZ_scrambled_109.jpg,LZ_scrambled\LZ_scrambled_204.jpg,LZ_scrambled\LZ_scrambled_201.jpg,None,None,None,None,3.0,LZ_scrambled\LZ_scrambled_230.jpg,1.0,a,2.0,23.0,0,51,51,51,,,,,,,,,,,,,,,,,,,383.8977125999809,None,,,,,,,,,388.9227310999995,389.9235148000007,389.91512879999937,None,l,0,0.24617839997517876,1.002141439996194,None,,,,,,,,,,,,,,,,,385.138688099978,385.4421669000003,385.47746019999613,385.7821330000006,385.8247046000033,386.1299059999874,386.12404669998796,386.4283809000044,386.47076949998154,386.7755271999922,386.82444009999745,387.13014880000264,387.1236777000013,387.4283824999875,387.4705508000043,387.7756490999891,387.82474049998564,388.1301486000011,388.1239568000019,388.42813369998476,388.47074960000464,388.7755251000053,388.82495209999615,None,6969,001,2021_Jan_25_0204,new_STLI_updated,2020.2.10,143.67671590889637,
LZ_natural\LZ_natural_198.jpg,LZ_natural\LZ_natural_210.jpg,LZ_natural\LZ_natural_88.jpg,LZ_natural\LZ_natural_53.jpg,LZ_natural\LZ_natural_40.jpg,LZ_natural\LZ_natural_178.jpg,LZ_natural\LZ_natural_14.jpg,LZ_natural\LZ_natural_13.jpg,None,None,None,None,None,None,None,None,2.0,LZ_natural\LZ_natural_9.jpg,0.0,l,1.0,12.0,0,52,52,52,,,,,,,,,,,,,,,,,,,390.175490499998,None,,,,,,,,,395.1420973999775,396.1466173999943,396.13739799999166,None,l,1,0.8075635000132024,1.0043486200156622,None,391.2489397999889,391.6990018999786,391.7411915999837,392.19232619999093,392.2412154999911,392.6923052999773,392.7414577000018,393.192095699982,393.24126779998187,393.6923309999984,393.7415716999967,394.1924133999855,394.24127460000454,394.69208939999226,394.74108619999606,None,,,,,,,,,,,,,,,,,,,,,,,,,6969,001,2021_Jan_25_0204,new_STLI_updated,2020.2.10,143.67671590889637,
LZ_natural\LZ_natural_205.jpg,LZ_natural\LZ_natural_186.jpg,LZ_natural\LZ_natural_218.jpg,LZ_natural\LZ_natural_29.jpg,None,None,None,None,None,None,None,None,None,None,None,None,1.0,LZ_natural\LZ_natural_96.jpg,0.0,l,1.0,11.0,0,53,53,53,,,,,,,,,,,,,,,,,,,396.95447470000363,None,398.5585600999766,399.5604795999825,399.54035699999076,400.54002099999343,400.54002099999343,401.5401901000005,401.5401901000005,None,401.9593507999962,402.96601129998453,402.956652199995,None,l,1,1.6766995999787468,1.003304459998617,None,,,,,,,,,,,,,,,,,,,,,,,,,,,,,,,,,,,,,,,,,6969,001,2021_Jan_25_0204,new_STLI_updated,2020.2.10,143.67671590889637,
LZ_natural\LZ_natural_213.jpg,LZ_natural\LZ_natural_8.jpg,LZ_natural\LZ_natural_152.jpg,LZ_natural\LZ_natural_109.jpg,LZ_natural\LZ_natural_16.jpg,LZ_natural\LZ_natural_118.jpg,LZ_natural\LZ_natural_112.jpg,LZ_natural\LZ_natural_123.jpg,LZ_natural\LZ_natural_130.jpg,LZ_natural\LZ_natural_156.jpg,LZ_natural\LZ_natural_51.jpg,LZ_natural\LZ_natural_146.jpg,None,None,None,None,3.0,LZ_natural\LZ_natural_189.jpg,0.0,l,1.0,13.0,0,54,54,54,,,,,,,,,,,,,,,,,,,404.6492741999973,None,,,,,,,,,409.6631336999999,410.6673613000021,410.65812539999024,None,l,1,0.37533260000054725,1.0003083599731326,None,,,,,,,,,,,,,,,,,405.791996999993,406.09530659997836,406.109646900004,406.4144652999821,406.4566622999846,406.7624470999872,406.7558259999787,407.0605620999995,407.10949229999096,407.41456039997865,407.45690930000274,407.76256159998593,407.7556156999781,408.0603129999945,408.1097095999867,408.4144891999895,408.4568894999975,408.7621918999939,408.7555134999857,409.0603377999796,409.10943129999214,409.4146109999856,409.45682229998056,None,6969,001,2021_Jan_25_0204,new_STLI_updated,2020.2.10,143.67671590889637,
LZ_scrambled\LZ_scrambled_124.jpg,LZ_scrambled\LZ_scrambled_25.jpg,LZ_scrambled\LZ_scrambled_46.jpg,LZ_scrambled\LZ_scrambled_192.jpg,LZ_scrambled\LZ_scrambled_182.jpg,LZ_scrambled\LZ_scrambled_145.jpg,LZ_scrambled\LZ_scrambled_22.jpg,LZ_scrambled\LZ_scrambled_140.jpg,None,None,None,None,None,None,None,None,2.0,LZ_scrambled\LZ_scrambled_106.jpg,0.0,l,2.0,22.0,0,55,55,55,,,,,,,,,,,,,,,,,,,411.04397090000566,None,,,,,,,,,416.0261896000011,417.0280660999997,417.01979859999847,None,l,1,1.0458828999835532,1.0042587000061758,None,412.21960599999875,412.6715786999848,412.70701869999175,413.15747519998695,413.2071784999862,413.6579167000018,413.7072642999992,414.15778079998563,414.2072485999961,414.6578320999979,414.7073228999798,415.15796389998286,415.20697259998997,415.65787519997684,415.70727069998975,None,,,,,,,,,,,,,,,,,,,,,,,,,6969,001,2021_Jan_25_0204,new_STLI_updated,2020.2.10,143.67671590889637,
LZ_scrambled\LZ_scrambled_102.jpg,LZ_scrambled\LZ_scrambled_198.jpg,LZ_scrambled\LZ_scrambled_239.jpg,LZ_scrambled\LZ_scrambled_115.jpg,LZ_scrambled\LZ_scrambled_106.jpg,LZ_scrambled\LZ_scrambled_142.jpg,LZ_scrambled\LZ_scrambled_224.jpg,LZ_scrambled\LZ_scrambled_50.jpg,None,None,None,None,None,None,None,None,2.0,LZ_scrambled\LZ_scrambled_229.jpg,0.0,l,2.0,22.0,0,56,56,56,,,,,,,,,,,,,,,,,,,418.08135689998744,None,,,,,,,,,423.05216009999276,424.0556734999991,424.0476868999831,None,l,1,0.5215826999919955,1.000798479974037,None,419.2295233999903,419.67858929999056,419.7211855999776,420.17176669999026,420.220720399986,420.6717869999993,420.72105299998657,421.1719311999914,421.2211963000009,421.67184199998155,421.721216099977,422.1718472999928,422.2211796999909,422.6718421999831,422.7211962000001,None,,,,,,,,,,,,,,,,,,,,,,,,,6969,001,2021_Jan_25_0204,new_STLI_updated,2020.2.10,143.67671590889637,
LZ_scrambled\LZ_scrambled_126.jpg,LZ_scrambled\LZ_scrambled_91.jpg,LZ_scrambled\LZ_scrambled_131.jpg,LZ_scrambled\LZ_scrambled_30.jpg,None,None,None,None,None,None,None,None,None,None,None,None,1.0,LZ_scrambled\LZ_scrambled_59.jpg,0.0,l,2.0,21.0,0,57,57,57,,,,,,,,,,,,,,,,,,,424.5850517999788,None,425.6985582000052,426.699887099996,426.6940025999793,427.69344979999005,427.69344979999005,428.69339489997947,428.69339489997947,None,429.6086751999974,430.6120011000021,430.60336409998126,434.60774619999574,l,1,4.062091300002066,1.0063187399937306,None,,,,,,,,,,,,,,,,,,,,,,,,,,,,,,,,,,,,,,,,,6969,001,2021_Jan_25_0204,new_STLI_updated,2020.2.10,143.67671590889637,
LZ_natural\LZ_natural_95.jpg,LZ_natural\LZ_natural_68.jpg,LZ_natural\LZ_natural_234.jpg,LZ_natural\LZ_natural_48.jpg,LZ_natural\LZ_natural_42.jpg,LZ_natural\LZ_natural_4.jpg,LZ_natural\LZ_natural_179.jpg,LZ_natural\LZ_natural_59.jpg,LZ_natural\LZ_natural_236.jpg,LZ_natural\LZ_natural_87.jpg,LZ_natural\LZ_natural_225.jpg,LZ_natural\LZ_natural_106.jpg,None,None,None,None,3.0,LZ_natural\LZ_natural_22.jpg,0.0,l,1.0,13.0,0,58,58,58,,,,,,,,,,,,,,,,,,,434.6785746999958,None,,,,,,,,,439.6906706999871,440.69503469998017,440.6864777999872,None,l,1,1.0747533999965526,1.0033389599993825,None,,,,,,,,,,,,,,,,,435.78318589998526,436.0816192999773,436.1237798999937,436.42896789999213,436.47793589998037,436.7834961999906,436.77716899997904,437.0816089999862,437.12377760000527,437.4289259999932,437.47784669999965,437.7836963000009,437.77727449999657,438.0818374999799,438.1240519999992,438.4287537999917,438.477962999983,438.7836424999987,438.7772447000025,439.08161090000067,439.1239151000045,439.4289092999825,439.47812789998716,None,6969,001,2021_Jan_25_0204,new_STLI_updated,2020.2.10,143.67671590889637,
LZ_natural\LZ_natural_2.jpg,LZ_natural\LZ_natural_239.jpg,LZ_natural\LZ_natural_127.jpg,LZ_natural\LZ_natural_231.jpg,LZ_natural\LZ_natural_12.jpg,LZ_natural\LZ_natural_74.jpg,LZ_natural\LZ_natural_161.jpg,LZ_natural\LZ_natural_221.jpg,None,None,None,None,None,None,None,None,2.0,LZ_natural\LZ_natural_231.jpg,1.0,a,1.0,12.0,0,59,59,59,,,,,,,,,,,,,,,,,,,441.77176599999075,None,,,,,,,,,446.73164189999807,447.73730079998495,447.7280426999787,None,l,0,0.7610478999849875,1.0020350600243546,None,442.8908942999842,443.3458590999944,443.3600181999791,443.8107626999845,443.8601699999999,444.310800199979,444.36020309999003,444.8110911999829,444.86014509998495,445.31083420000505,445.36005220000516,445.810888899985,445.8600311999908,446.310866099986,446.3602740999777,None,,,,,,,,,,,,,,,,,,,,,,,,,6969,001,2021_Jan_25_0204,new_STLI_updated,2020.2.10,143.67671590889637,
LZ_natural\LZ_natural_134.jpg,LZ_natural\LZ_natural_142.jpg,LZ_natural\LZ_natural_24.jpg,LZ_natural\LZ_natural_228.jpg,LZ_natural\LZ_natural_116.jpg,LZ_natural\LZ_natural_158.jpg,LZ_natural\LZ_natural_105.jpg,LZ_natural\LZ_natural_166.jpg,None,None,None,None,None,None,None,None,2.0,LZ_natural\LZ_natural_121.jpg,0.0,l,1.0,12.0,0,60,60,60,,,,,,,,,,,,,,,,,,,448.50376949997735,None,,,,,,,,,453.46132439997746,454.46699960000115,454.4574876999832,None,l,1,0.26377019999199547,1.0009760600223672,None,449.5648745999788,450.01921909998055,450.0613936999871,450.51238979998743,450.5613044000056,451.0126909999817,451.06168539999635,451.51222519998555,451.5615952999797,452.0123218999943,452.0613053999841,452.5123537000036,452.56130559998564,453.01250389998313,453.0615346999839,None,,,,,,,,,,,,,,,,,,,,,,,,,6969,001,2021_Jan_25_0204,new_STLI_updated,2020.2.10,143.67671590889637,
LZ_noise\LZ_noise_220.jpg,LZ_noise\LZ_noise_25.jpg,LZ_noise\LZ_noise_148.jpg,LZ_noise\LZ_noise_187.jpg,LZ_noise\LZ_noise_235.jpg,LZ_noise\LZ_noise_140.jpg,LZ_noise\LZ_noise_212.jpg,LZ_noise\LZ_noise_120.jpg,LZ_noise\LZ_noise_219.jpg,LZ_noise\LZ_noise_172.jpg,LZ_noise\LZ_noise_204.jpg,LZ_noise\LZ_noise_22.jpg,None,None,None,None,3.0,LZ_noise\LZ_noise_140.jpg,1.0,a,3.0,33.0,0,61,61,61,,,,,,,,,,,,,,,,,,,454.73659729998326,None,,,,,,,,,459.748231399979,460.7510240999982,460.74240389998886,None,l,0,0.7784761000075378,1.0064598199969623,None,,,,,,,,,,,,,,,,,455.84580209999694,456.1445013000048,456.1864745999919,456.49181399997906,456.53387260000454,456.8391735999903,456.8391735999903,457.1445373999886,457.18680259998655,457.49148799999966,457.5340753000055,457.83928529999685,457.83282459998736,458.1374638999987,458.1869566999958,458.4915833999985,458.53401329999906,458.8390786999953,458.8390786999953,459.1376206999994,459.18665049999254,459.49174159998074,459.5338475999888,None,6969,001,2021_Jan_25_0204,new_STLI_updated,2020.2.10,143.67671590889637,
LZ_noise\LZ_noise_186.jpg,LZ_noise\LZ_noise_127.jpg,LZ_noise\LZ_noise_183.jpg,LZ_noise\LZ_noise_36.jpg,LZ_noise\LZ_noise_151.jpg,LZ_noise\LZ_noise_188.jpg,LZ_noise\LZ_noise_72.jpg,LZ_noise\LZ_noise_67.jpg,LZ_noise\LZ_noise_11.jpg,LZ_noise\LZ_noise_119.jpg,LZ_noise\LZ_noise_55.jpg,LZ_noise\LZ_noise_35.jpg,None,None,None,None,3.0,LZ_noise\LZ_noise_61.jpg,0.0,l,3.0,33.0,0,62,62,62,,,,,,,,,,,,,,,,,,,461.5356788999925,None,,,,,,,,,466.5463380999863,467.549657399999,467.5409912999894,None,l,1,0.9877151999971829,1.0060918200470041,None,,,,,,,,,,,,,,,,,462.6342076000001,462.9360759999836,462.9784482999821,463.2834096000006,463.3326661000028,463.63817779999226,463.631705399981,463.93596459997934,463.9786400999874,464.2834415999823,464.32583639997756,464.63142969997716,464.63142969997716,464.9363114000007,464.9783880999894,465.2833417999791,465.332551999978,465.6379339999985,465.63177639999776,465.93634719998227,465.97857109998586,466.2832579999813,466.3328617999796,None,6969,001,2021_Jan_25_0204,new_STLI_updated,2020.2.10,143.67671590889637,
LZ_natural\LZ_natural_232.jpg,LZ_natural\LZ_natural_77.jpg,LZ_natural\LZ_natural_214.jpg,LZ_natural\LZ_natural_73.jpg,None,None,None,None,None,None,None,None,None,None,None,None,1.0,LZ_natural\LZ_natural_114.jpg,0.0,l,1.0,11.0,0,63,63,63,,,,,,,,,,,,,,,,,,,468.5393066999968,None,469.6041197000013,470.6035004000005,470.58313479999197,471.5828671999916,471.5828671999916,472.58255759999156,472.58255759999156,None,473.55613879999146,474.56394120000186,474.5481142999779,None,l,1,1.9890635999909136,1.0010420800244901,None,,,,,,,,,,,,,,,,,,,,,,,,,,,,,,,,,,,,,,,,,6969,001,2021_Jan_25_0204,new_STLI_updated,2020.2.10,143.67671590889637,
LZ_noise\LZ_noise_156.jpg,LZ_noise\LZ_noise_207.jpg,LZ_noise\LZ_noise_194.jpg,LZ_noise\LZ_noise_227.jpg,None,None,None,None,None,None,None,None,None,None,None,None,1.0,LZ_noise\LZ_noise_156.jpg,1.0,a,3.0,31.0,0,64,64,64,,,,,,,,,,,,,,,,,,,476.55120029998943,None,477.6026470999932,478.6034527999873,478.5971887999913,479.59662039999967,479.59662039999967,480.5968378999969,480.5968378999969,None,481.5585274999903,482.56302869998035,482.5549697999959,None,l,0,2.0310389999940526,1.0018042599840555,None,,,,,,,,,,,,,,,,,,,,,,,,,,,,,,,,,,,,,,,,,6969,001,2021_Jan_25_0204,new_STLI_updated,2020.2.10,143.67671590889637,
LZ_natural\LZ_natural_46.jpg,LZ_natural\LZ_natural_149.jpg,LZ_natural\LZ_natural_10.jpg,LZ_natural\LZ_natural_120.jpg,LZ_natural\LZ_natural_229.jpg,LZ_natural\LZ_natural_163.jpg,LZ_natural\LZ_natural_11.jpg,LZ_natural\LZ_natural_201.jpg,None,None,None,None,None,None,None,None,2.0,LZ_natural\LZ_natural_120.jpg,1.0,a,1.0,12.0,0,65,65,65,,,,,,,,,,,,,,,,,,,484.601530999993,None,,,,,,,,,489.5564486999938,490.5642331999843,490.54838629998267,None,l,0,1.5970309000113048,1.000280259991996,None,485.6698423999769,486.1239062999957,486.16598029999295,486.61715659999754,486.66627600000356,487.11704949999694,487.16593610000564,487.61725129999104,487.6660432999779,488.1171429999813,488.16616890000296,488.6169603999879,488.6661314999801,489.11690719999024,489.1661791999941,None,,,,,,,,,,,,,,,,,,,,,,,,,6969,001,2021_Jan_25_0204,new_STLI_updated,2020.2.10,143.67671590889637,
LZ_scrambled\LZ_scrambled_116.jpg,LZ_scrambled\LZ_scrambled_160.jpg,LZ_scrambled\LZ_scrambled_214.jpg,LZ_scrambled\LZ_scrambled_136.jpg,None,None,None,None,None,None,None,None,None,None,None,None,1.0,LZ_scrambled\LZ_scrambled_48.jpg,0.0,l,2.0,21.0,0,66,66,66,,,,,,,,,,,,,,,,,,,492.15784699999494,None,493.25786539999535,494.2563540999836,494.2500990999979,495.24984049997875,495.24984049997875,496.24971599999117,496.24971599999117,None,497.18764629997895,498.1893893999804,498.1805663999985,None,l,1,0.3564077999908477,1.00293759998749,None,,,,,,,,,,,,,,,,,,,,,,,,,,,,,,,,,,,,,,,,,6969,001,2021_Jan_25_0204,new_STLI_updated,2020.2.10,143.67671590889637,
LZ_noise\LZ_noise_233.jpg,LZ_noise\LZ_noise_111.jpg,LZ_noise\LZ_noise_63.jpg,LZ_noise\LZ_noise_96.jpg,LZ_noise\LZ_noise_20.jpg,LZ_noise\LZ_noise_3.jpg,LZ_noise\LZ_noise_54.jpg,LZ_noise\LZ_noise_83.jpg,None,None,None,None,None,None,None,None,2.0,LZ_noise\LZ_noise_233.jpg,1.0,a,3.0,32.0,0,67,67,67,,,,,,,,,,,,,,,,,,,498.55244030000176,None,,,,,,,,,503.5133344999922,504.5162032999797,504.4994547999813,None,l,0,0.41356260000611655,1.0012465199979488,None,499.6462411999819,500.09652160000405,500.1387740999926,500.58972409999114,500.6385862999887,501.0892312999931,501.13847539998824,501.58964779999224,501.63880139999674,502.08966149998014,502.13845989998663,502.5894902999862,502.63857989999815,503.0895911999978,503.1388636000047,None,,,,,,,,,,,,,,,,,,,,,,,,,6969,001,2021_Jan_25_0204,new_STLI_updated,2020.2.10,143.67671590889637,
LZ_scrambled\LZ_scrambled_64.jpg,LZ_scrambled\LZ_scrambled_128.jpg,LZ_scrambled\LZ_scrambled_5.jpg,LZ_scrambled\LZ_scrambled_208.jpg,None,None,None,None,None,None,None,None,None,None,None,None,1.0,LZ_scrambled\LZ_scrambled_70.jpg,0.0,l,2.0,21.0,0,68,68,68,,,,,,,,,,,,,,,,,,,504.9279003999836,None,506.0370219000033,507.0413561000023,507.02840159999323,508.02773889998207,508.02773889998207,509.02799919998506,509.02799919998506,None,509.94865229999414,510.9529371999961,510.94474730000366,None,l,1,0.25679300000774674,1.002461880008923,None,,,,,,,,,,,,,,,,,,,,,,,,,,,,,,,,,,,,,,,,,6969,001,2021_Jan_25_0204,new_STLI_updated,2020.2.10,143.67671590889637,
LZ_natural\LZ_natural_67.jpg,LZ_natural\LZ_natural_69.jpg,LZ_natural\LZ_natural_34.jpg,LZ_natural\LZ_natural_61.jpg,LZ_natural\LZ_natural_136.jpg,LZ_natural\LZ_natural_63.jpg,LZ_natural\LZ_natural_219.jpg,LZ_natural\LZ_natural_23.jpg,LZ_natural\LZ_natural_57.jpg,LZ_natural\LZ_natural_122.jpg,LZ_natural\LZ_natural_197.jpg,LZ_natural\LZ_natural_238.jpg,None,None,None,None,3.0,LZ_natural\LZ_natural_57.jpg,1.0,a,1.0,13.0,0,69,69,69,,,,,,,,,,,,,,,,,,,511.21558719998575,None,,,,,,,,,516.2303069999907,517.2304927999794,517.2223899999808,None,l,0,0.36394290000316687,1.0051039200334344,None,,,,,,,,,,,,,,,,,512.318976199982,512.6244043000042,512.659482499992,512.964496999979,513.0140512999787,513.319351699989,513.3129117999924,513.6176428000035,513.6595297000022,513.9646688999783,514.0136483999959,514.319240199984,514.3127785999968,514.6174200999958,514.6595822999952,514.9646278999862,515.0137207999942,515.31946899998,515.3129847999953,515.6174698999966,515.6597196999937,515.9644334999903,516.0139192999923,None,6969,001,2021_Jan_25_0204,new_STLI_updated,2020.2.10,143.67671590889637,
LZ_scrambled\LZ_scrambled_96.jpg,LZ_scrambled\LZ_scrambled_24.jpg,LZ_scrambled\LZ_scrambled_236.jpg,LZ_scrambled\LZ_scrambled_27.jpg,LZ_scrambled\LZ_scrambled_122.jpg,LZ_scrambled\LZ_scrambled_18.jpg,LZ_scrambled\LZ_scrambled_23.jpg,LZ_scrambled\LZ_scrambled_166.jpg,None,None,None,None,None,None,None,None,2.0,LZ_scrambled\LZ_scrambled_7.jpg,0.0,l,2.0,22.0,0,70,70,70,,,,,,,,,,,,,,,,,,,517.6008683999826,None,,,,,,,,,522.5774955999805,523.5774061999982,523.5697727999941,None,l,1,0.33513269998366013,1.002906339999754,None,518.8528092000051,519.305072099989,519.3403918999829,519.7907182000054,519.8400767999992,520.2907258999767,520.340052399988,520.7911598999926,520.8406627999793,521.2910511999798,521.3406225999934,521.7909909999871,521.8402164999861,522.291020100005,522.3401937999879,None,,,,,,,,,,,,,,,,,,,,,,,,,6969,001,2021_Jan_25_0204,new_STLI_updated,2020.2.10,143.67671590889637,
LZ_scrambled\LZ_scrambled_87.jpg,LZ_scrambled\LZ_scrambled_16.jpg,LZ_scrambled\LZ_scrambled_206.jpg,LZ_scrambled\LZ_scrambled_92.jpg,LZ_scrambled\LZ_scrambled_98.jpg,LZ_scrambled\LZ_scrambled_40.jpg,LZ_scrambled\LZ_scrambled_125.jpg,LZ_scrambled\LZ_scrambled_54.jpg,None,None,None,None,None,None,None,None,2.0,LZ_scrambled\LZ_scrambled_87.jpg,1.0,a,2.0,22.0,0,71,71,71,,,,,,,,,,,,,,,,,,,523.9166395999782,None,,,,,,,,,528.8935569000023,529.8978993999772,529.8892696999828,None,l,0,0.5600391000043601,1.000782579969382,None,525.0531098999782,525.5064654999878,525.5421128000016,525.9926472999796,526.0420485999784,526.4924419999879,526.5417711999908,526.9924138999777,527.0420593000017,527.4925927000004,527.5421934000042,527.9926968999789,528.0419557999994,528.492643000005,528.5421895000036,None,,,,,,,,,,,,,,,,,,,,,,,,,6969,001,2021_Jan_25_0204,new_STLI_updated,2020.2.10,143.67671590889637,
LZ_natural\LZ_natural_177.jpg,LZ_natural\LZ_natural_182.jpg,LZ_natural\LZ_natural_66.jpg,LZ_natural\LZ_natural_187.jpg,LZ_natural\LZ_natural_188.jpg,LZ_natural\LZ_natural_32.jpg,LZ_natural\LZ_natural_18.jpg,LZ_natural\LZ_natural_140.jpg,None,None,None,None,None,None,None,None,2.0,LZ_natural\LZ_natural_114.jpg,0.0,l,1.0,12.0,0,72,72,72,,,,,,,,,,,,,,,,,,,530.4637286999787,None,,,,,,,,,535.4236895999929,536.4256526999816,536.4166609999957,None,l,1,0.2643198999867309,1.0008031600154936,None,531.5523138999997,532.0066994999943,532.0280239999993,532.4788217000023,532.5279694999917,532.9788985999767,533.0276301999984,533.4788646999805,533.5280577999947,533.9790212999796,534.0280190999911,534.4789566999825,534.5280460999929,534.9787224000029,535.027969399991,None,,,,,,,,,,,,,,,,,,,,,,,,,6969,001,2021_Jan_25_0204,new_STLI_updated,2020.2.10,143.67671590889637,
LZ_noise\LZ_noise_66.jpg,LZ_noise\LZ_noise_209.jpg,LZ_noise\LZ_noise_142.jpg,LZ_noise\LZ_noise_57.jpg,None,None,None,None,None,None,None,None,None,None,None,None,1.0,LZ_noise\LZ_noise_66.jpg,1.0,a,3.0,31.0,0,73,73,73,,,,,,,,,,,,,,,,,,,536.6974609000026,None,537.7521204999939,538.7570036999823,538.7369669000036,539.7365972999833,539.7365972999833,540.7362868999771,540.7362868999771,None,541.7046697000042,542.7094724999915,542.7018021999975,None,l,0,0.23525000002700835,1.0018236599862576,None,,,,,,,,,,,,,,,,,,,,,,,,,,,,,,,,,,,,,,,,,6969,001,2021_Jan_25_0204,new_STLI_updated,2020.2.10,143.67671590889637,
LZ_natural\LZ_natural_79.jpg,LZ_natural\LZ_natural_145.jpg,LZ_natural\LZ_natural_217.jpg,LZ_natural\LZ_natural_49.jpg,LZ_natural\LZ_natural_144.jpg,LZ_natural\LZ_natural_215.jpg,LZ_natural\LZ_natural_7.jpg,LZ_natural\LZ_natural_240.jpg,LZ_natural\LZ_natural_175.jpg,LZ_natural\LZ_natural_50.jpg,LZ_natural\LZ_natural_82.jpg,LZ_natural\LZ_natural_15.jpg,None,None,None,None,3.0,LZ_natural\LZ_natural_50.jpg,1.0,a,1.0,13.0,0,74,74,74,,,,,,,,,,,,,,,,,,,542.951335699996,None,,,,,,,,,547.963625000004,548.9677587999904,548.9590871999972,None,l,0,0.24987550001242198,1.0008713599818293,None,,,,,,,,,,,,,,,,,544.0553537999804,544.3537890999869,544.396293400001,544.7012804999831,544.7435016999952,545.0490382999997,545.0490382999997,545.3537465999834,545.3964071999944,545.7010485999926,545.7431667999772,546.0491882999777,546.0491882999777,546.3538975999982,546.3961195999873,546.7013255999773,546.7433076000016,547.0487282999966,547.0487282999966,547.354091199988,547.3964607999951,547.7013105999795,547.7432835999934,None,6969,001,2021_Jan_25_0204,new_STLI_updated,2020.2.10,143.67671590889637,
LZ_natural\LZ_natural_90.jpg,LZ_natural\LZ_natural_25.jpg,LZ_natural\LZ_natural_222.jpg,LZ_natural\LZ_natural_181.jpg,None,None,None,None,None,None,None,None,None,None,None,None,1.0,LZ_natural\LZ_natural_134.jpg,0.0,l,1.0,11.0,0,75,75,75,,,,,,,,,,,,,,,,,,,549.2206268000009,None,550.2600803999812,551.2643969999917,551.2576492999797,552.2574936999881,552.2574936999881,553.2574576000043,553.2574576000043,None,554.2264471999952,555.2313118999882,555.2225408999948,None,l,1,0.2663759999850299,1.0030506600160152,None,,,,,,,,,,,,,,,,,,,,,,,,,,,,,,,,,,,,,,,,,6969,001,2021_Jan_25_0204,new_STLI_updated,2020.2.10,143.67671590889637,
LZ_natural\LZ_natural_162.jpg,LZ_natural\LZ_natural_135.jpg,LZ_natural\LZ_natural_212.jpg,LZ_natural\LZ_natural_92.jpg,LZ_natural\LZ_natural_100.jpg,LZ_natural\LZ_natural_108.jpg,LZ_natural\LZ_natural_237.jpg,LZ_natural\LZ_natural_70.jpg,LZ_natural\LZ_natural_153.jpg,LZ_natural\LZ_natural_62.jpg,LZ_natural\LZ_natural_117.jpg,LZ_natural\LZ_natural_1.jpg,None,None,None,None,3.0,LZ_natural\LZ_natural_70.jpg,1.0,a,1.0,13.0,0,76,76,76,,,,,,,,,,,,,,,,,,,555.5027470999921,None,,,,,,,,,560.5096324000042,561.5161569000047,561.5076626999944,None,l,0,0.22074669998255558,1.004320860025473,None,,,,,,,,,,,,,,,,,556.6219786999864,556.9236785999965,556.9656555999827,557.270703599992,557.3200413000013,557.6253136000014,557.6190964999842,557.9237223999808,557.9656317000045,558.2709258999967,558.3201454999798,558.6252903999994,558.6188589999801,558.9237633000012,558.9659506999888,559.2707676999853,559.3200555999938,559.6255190999946,559.6190573999775,559.92360129999,559.9656219999888,560.2709396999853,560.3201337999781,None,6969,001,2021_Jan_25_0204,new_STLI_updated,2020.2.10,143.67671590889637,
LZ_scrambled\LZ_scrambled_76.jpg,LZ_scrambled\LZ_scrambled_223.jpg,LZ_scrambled\LZ_scrambled_227.jpg,LZ_scrambled\LZ_scrambled_85.jpg,LZ_scrambled\LZ_scrambled_212.jpg,LZ_scrambled\LZ_scrambled_20.jpg,LZ_scrambled\LZ_scrambled_200.jpg,LZ_scrambled\LZ_scrambled_65.jpg,None,None,None,None,None,None,None,None,2.0,LZ_scrambled\LZ_scrambled_200.jpg,1.0,a,2.0,22.0,0,77,77,77,,,,,,,,,,,,,,,,,,,561.741506499995,None,,,,,,,,,566.7080252000014,567.7108783999865,567.7023848999816,None,l,0,0.5145858000032604,1.0055236799817067,None,562.9617960999894,563.4169313999882,563.4519715999777,563.9026328999898,563.9519235999906,564.4029282999982,564.4522490999952,564.9028251999989,564.9524759000051,565.4027193999791,565.451849199977,565.9029309999896,565.952354899986,566.4027692999807,566.4520890999993,None,,,,,,,,,,,,,,,,,,,,,,,,,6969,001,2021_Jan_25_0204,new_STLI_updated,2020.2.10,143.67671590889637,
LZ_natural\LZ_natural_143.jpg,LZ_natural\LZ_natural_155.jpg,LZ_natural\LZ_natural_66.jpg,LZ_natural\LZ_natural_38.jpg,None,None,None,None,None,None,None,None,None,None,None,None,1.0,LZ_natural\LZ_natural_143.jpg,1.0,a,1.0,11.0,0,78,78,78,,,,,,,,,,,,,,,,,,,568.2326205999998,None,569.2650721999817,570.2645162999979,570.2582188999804,571.2575626999896,571.2575626999896,572.2575575999799,572.2575575999799,None,573.2443970000022,574.2453714000003,574.2367996999819,None,l,0,0.4449779999849852,1.0061842199938837,None,,,,,,,,,,,,,,,,,,,,,,,,,,,,,,,,,,,,,,,,,6969,001,2021_Jan_25_0204,new_STLI_updated,2020.2.10,143.67671590889637,
LZ_noise\LZ_noise_199.jpg,LZ_noise\LZ_noise_146.jpg,LZ_noise\LZ_noise_80.jpg,LZ_noise\LZ_noise_157.jpg,LZ_noise\LZ_noise_150.jpg,LZ_noise\LZ_noise_144.jpg,LZ_noise\LZ_noise_45.jpg,LZ_noise\LZ_noise_135.jpg,None,None,None,None,None,None,None,None,2.0,LZ_noise\LZ_noise_64.jpg,0.0,l,3.0,32.0,0,79,79,79,,,,,,,,,,,,,,,,,,,574.6922992999898,None,,,,,,,,,579.6500916999939,580.6561134999793,580.6465457000013,None,l,1,0.5465023999859113,1.0029273600084707,None,575.8099416999903,576.2639923999959,576.2853851999971,576.7360189000028,576.7855818999815,577.23648219998,577.2857523999992,577.7364200000011,577.7854824999813,578.2363918999908,578.2854824999813,578.736468099989,578.785424200003,579.2364445999847,579.2856961999787,None,,,,,,,,,,,,,,,,,,,,,,,,,6969,001,2021_Jan_25_0204,new_STLI_updated,2020.2.10,143.67671590889637,
LZ_natural\LZ_natural_177.jpg,LZ_natural\LZ_natural_182.jpg,LZ_natural\LZ_natural_125.jpg,LZ_natural\LZ_natural_191.jpg,LZ_natural\LZ_natural_198.jpg,LZ_natural\LZ_natural_231.jpg,LZ_natural\LZ_natural_23.jpg,LZ_natural\LZ_natural_230.jpg,None,None,None,None,None,None,None,None,2.0,LZ_natural\LZ_natural_177.jpg,1.0,a,1.0,12.0,0,80,80,80,,,,,,,,,,,,,,,,,,,581.205287299992,None,,,,,,,,,586.1614301999798,587.1624618999776,587.1538538000023,None,l,0,0.567005600023549,1.000638860015897,None,582.2337920999853,582.6877086999884,582.7299103999976,583.1805896000005,583.2299110000022,583.6809722000035,583.7302020999778,584.1809796000016,584.230293999979,584.6808311999775,584.7298311999766,585.1807346999994,585.2298042000039,585.6810969999933,585.7299650999776,None,,,,,,,,,,,,,,,,,,,,,,,,,6969,001,2021_Jan_25_0204,new_STLI_updated,2020.2.10,143.67671590889637,
LZ_scrambled\LZ_scrambled_186.jpg,LZ_scrambled\LZ_scrambled_185.jpg,LZ_scrambled\LZ_scrambled_171.jpg,LZ_scrambled\LZ_scrambled_48.jpg,LZ_scrambled\LZ_scrambled_233.jpg,LZ_scrambled\LZ_scrambled_187.jpg,LZ_scrambled\LZ_scrambled_222.jpg,LZ_scrambled\LZ_scrambled_82.jpg,LZ_scrambled\LZ_scrambled_169.jpg,LZ_scrambled\LZ_scrambled_174.jpg,LZ_scrambled\LZ_scrambled_44.jpg,LZ_scrambled\LZ_scrambled_38.jpg,None,None,None,None,3.0,LZ_scrambled\LZ_scrambled_213.jpg,0.0,l,2.0,23.0,0,81,81,81,,,,,,,,,,,,,,,,,,,587.7352474999789,None,,,,,,,,,592.7484089999925,593.7551654999843,593.7374348999874,None,l,1,0.35182869998971,1.000778280023951,None,,,,,,,,,,,,,,,,,589.0647547999979,589.3684111000039,589.3970797999937,589.7018142000015,589.7512197000033,590.0562497999927,590.050102499983,590.3547247999813,590.3966440999939,590.7019701999961,590.7510588000005,591.05650039998,591.0503844999766,591.3545392999949,591.3968353999953,591.7016385000024,591.7512712999887,592.0564390999789,592.0503584999824,592.3547046000022,592.3969949999882,592.7019061000028,None,None,6969,001,2021_Jan_25_0204,new_STLI_updated,2020.2.10,143.67671590889637,
LZ_noise\LZ_noise_20.jpg,LZ_noise\LZ_noise_176.jpg,LZ_noise\LZ_noise_238.jpg,LZ_noise\LZ_noise_128.jpg,None,None,None,None,None,None,None,None,None,None,None,None,1.0,LZ_noise\LZ_noise_20.jpg,1.0,a,3.0,31.0,0,82,82,82,,,,,,,,,,,,,,,,,,,594.104139300005,None,595.1225851000054,596.1255692999985,596.1191742999945,597.1188303999952,597.1121906999906,598.1112944000051,598.1187869999849,None,599.1151591999806,600.1205116999918,600.1118297999783,None,l,0,1.4962374999886379,1.0061257600027602,None,,,,,,,,,,,,,,,,,,,,,,,,,,,,,,,,,,,,,,,,,6969,001,2021_Jan_25_0204,new_STLI_updated,2020.2.10,143.67671590889637,
LZ_natural\LZ_natural_2.jpg,LZ_natural\LZ_natural_202.jpg,LZ_natural\LZ_natural_167.jpg,LZ_natural\LZ_natural_69.jpg,None,None,None,None,None,None,None,None,None,None,None,None,1.0,LZ_natural\LZ_natural_2.jpg,1.0,a,1.0,11.0,0,83,83,83,,,,,,,,,,,,,,,,,,,601.6188085000031,None,602.6257081999793,603.6256462000019,603.6192328000034,604.6188082000008,604.6188082000008,605.6189078000025,605.6189078000025,None,606.6209776999895,607.6273232999956,607.6188694000011,None,l,0,0.8854879999998957,1.0047456600004807,None,,,,,,,,,,,,,,,,,,,,,,,,,,,,,,,,,,,,,,,,,6969,001,2021_Jan_25_0204,new_STLI_updated,2020.2.10,143.67671590889637,
LZ_noise\LZ_noise_33.jpg,LZ_noise\LZ_noise_206.jpg,LZ_noise\LZ_noise_160.jpg,LZ_noise\LZ_noise_164.jpg,LZ_noise\LZ_noise_228.jpg,LZ_noise\LZ_noise_42.jpg,LZ_noise\LZ_noise_237.jpg,LZ_noise\LZ_noise_70.jpg,LZ_noise\LZ_noise_142.jpg,LZ_noise\LZ_noise_39.jpg,LZ_noise\LZ_noise_194.jpg,LZ_noise\LZ_noise_115.jpg,None,None,None,None,3.0,LZ_noise\LZ_noise_33.jpg,1.0,a,3.0,33.0,0,84,84,84,,,,,,,,,,,,,,,,,,,608.518470799987,None,,,,,,,,,613.5231707999774,614.5306759999949,614.5217806999863,None,l,0,1.2311027999967337,1.005619760020636,None,,,,,,,,,,,,,,,,,609.6429127999872,609.9450257999997,609.9663867999916,610.2715426999785,610.3137379999971,610.6192553000001,610.613036099996,610.9175757000048,610.9666735999926,611.271268499986,611.313491399982,611.6190149000031,611.6128801000013,611.9173479999881,611.9664675999957,612.2713923999981,612.3139382999798,612.6192641999805,612.6129273999832,612.9172414999921,612.9666975,613.271213400003,613.3133749999979,None,6969,001,2021_Jan_25_0204,new_STLI_updated,2020.2.10,143.67671590889637,
LZ_noise\LZ_noise_85.jpg,LZ_noise\LZ_noise_65.jpg,LZ_noise\LZ_noise_58.jpg,LZ_noise\LZ_noise_134.jpg,LZ_noise\LZ_noise_11.jpg,LZ_noise\LZ_noise_63.jpg,LZ_noise\LZ_noise_193.jpg,LZ_noise\LZ_noise_230.jpg,None,None,None,None,None,None,None,None,2.0,LZ_noise\LZ_noise_65.jpg,1.0,a,3.0,32.0,0,85,85,85,,,,,,,,,,,,,,,,,,,615.7669071999844,None,,,,,,,,,620.7277146999841,621.7318802999798,621.7232949000027,None,l,0,1.5578528000041842,1.0005602600285783,None,616.8081066999875,617.2575742999907,617.2997841000033,617.750655699987,617.79991099998,618.2506538000016,618.300055300002,618.7506334999925,618.7998318999889,619.2506430999783,619.2997873999993,619.7507238999824,619.8001583000005,620.2507065999962,620.3000313999946,None,,,,,,,,,,,,,,,,,,,,,,,,,6969,001,2021_Jan_25_0204,new_STLI_updated,2020.2.10,143.67671590889637,
LZ_natural\LZ_natural_210.jpg,LZ_natural\LZ_natural_133.jpg,LZ_natural\LZ_natural_112.jpg,LZ_natural\LZ_natural_134.jpg,None,None,None,None,None,None,None,None,None,None,None,None,1.0,LZ_natural\LZ_natural_210.jpg,1.0,a,1.0,11.0,0,86,86,86,,,,,,,,,,,,,,,,,,,623.2973968999868,None,624.3120340000023,625.3140327000001,625.3075922999997,626.3068975999777,626.3068975999777,627.306817899982,627.306817899982,None,628.3012050999969,629.3081528999901,629.3003178999934,None,l,0,0.2526439000212122,1.0067275599867571,None,,,,,,,,,,,,,,,,,,,,,,,,,,,,,,,,,,,,,,,,,6969,001,2021_Jan_25_0204,new_STLI_updated,2020.2.10,143.67671590889637,
LZ_noise\LZ_noise_121.jpg,LZ_noise\LZ_noise_116.jpg,LZ_noise\LZ_noise_90.jpg,LZ_noise\LZ_noise_184.jpg,LZ_noise\LZ_noise_104.jpg,LZ_noise\LZ_noise_135.jpg,LZ_noise\LZ_noise_83.jpg,LZ_noise\LZ_noise_183.jpg,None,None,None,None,None,None,None,None,2.0,LZ_noise\LZ_noise_82.jpg,0.0,l,3.0,32.0,0,87,87,87,,,,,,,,,,,,,,,,,,,629.5705085999798,None,,,,,,,,,634.5269897999824,635.5319957000029,635.5224858000001,None,l,1,1.8381423000246286,1.0003821600112133,None,630.622261499986,631.0772543999774,631.1128239999816,631.5635596999782,631.6127774000051,632.0635414999851,632.1127118000004,632.5634597000026,632.6194093999802,633.0705420000013,633.1124151999829,633.5634022000013,633.6127486999903,634.0633628999931,634.1127582000045,None,,,,,,,,,,,,,,,,,,,,,,,,,6969,001,2021_Jan_25_0204,new_STLI_updated,2020.2.10,143.67671590889637,
LZ_scrambled\LZ_scrambled_146.jpg,LZ_scrambled\LZ_scrambled_234.jpg,LZ_scrambled\LZ_scrambled_165.jpg,LZ_scrambled\LZ_scrambled_179.jpg,LZ_scrambled\LZ_scrambled_235.jpg,LZ_scrambled\LZ_scrambled_141.jpg,LZ_scrambled\LZ_scrambled_147.jpg,LZ_scrambled\LZ_scrambled_88.jpg,LZ_scrambled\LZ_scrambled_68.jpg,LZ_scrambled\LZ_scrambled_220.jpg,LZ_scrambled\LZ_scrambled_10.jpg,LZ_scrambled\LZ_scrambled_211.jpg,None,None,None,None,3.0,LZ_scrambled\LZ_scrambled_68.jpg,1.0,a,2.0,23.0,0,88,88,88,,,,,,,,,,,,,,,,,,,637.3755320000055,None,,,,,,,,,642.4045852999843,643.4059227999824,643.3976985999907,None,l,0,1.595521799987182,1.004164240002865,None,,,,,,,,,,,,,,,,,638.6935433000035,638.9941576999845,639.0297715000052,639.3345234000008,639.3838641000038,639.688949399977,639.682925799978,639.9872901999915,640.029834099987,640.334532399982,640.3835644999926,640.6890366000007,640.6826472999819,640.9873560999986,641.0297167999961,641.3343247000012,641.3837745999917,641.6889259000018,641.6829375999805,641.9872818999866,642.0298354999977,642.3345540000009,None,None,6969,001,2021_Jan_25_0204,new_STLI_updated,2020.2.10,143.67671590889637,
LZ_noise\LZ_noise_5.jpg,LZ_noise\LZ_noise_181.jpg,LZ_noise\LZ_noise_208.jpg,LZ_noise\LZ_noise_162.jpg,LZ_noise\LZ_noise_86.jpg,LZ_noise\LZ_noise_7.jpg,LZ_noise\LZ_noise_177.jpg,LZ_noise\LZ_noise_74.jpg,None,None,None,None,None,None,None,None,2.0,LZ_noise\LZ_noise_208.jpg,1.0,a,3.0,32.0,0,89,89,89,,,,,,,,,,,,,,,,,,,645.0104416999966,None,,,,,,,,,649.9755881000019,650.9855787999986,650.9669505999773,None,l,0,2.4178790999867488,1.004321720014559,None,646.0685721999907,646.5222635999962,646.5644117000047,647.0151831999829,647.0640566999791,647.5150601999776,647.5643097999855,648.0149653999833,648.0644825999916,648.5149955999805,648.563933700003,649.0152717999881,649.064154599997,649.5151824999775,649.5643637999892,None,,,,,,,,,,,,,,,,,,,,,,,,,6969,001,2021_Jan_25_0204,new_STLI_updated,2020.2.10,143.67671590889637,
LZ_noise\LZ_noise_140.jpg,LZ_noise\LZ_noise_205.jpg,LZ_noise\LZ_noise_100.jpg,LZ_noise\LZ_noise_92.jpg,LZ_noise\LZ_noise_163.jpg,LZ_noise\LZ_noise_190.jpg,LZ_noise\LZ_noise_166.jpg,LZ_noise\LZ_noise_156.jpg,LZ_noise\LZ_noise_36.jpg,LZ_noise\LZ_noise_233.jpg,LZ_noise\LZ_noise_15.jpg,LZ_noise\LZ_noise_187.jpg,None,None,None,None,3.0,LZ_noise\LZ_noise_69.jpg,0.0,l,3.0,33.0,0,90,90,90,,,,,,,,,,,,,,,,,,,653.4014885999786,None,,,,,,,,,658.4099388000031,659.4133597000036,659.4044066999923,None,l,1,3.052776399999857,1.0060306200175546,None,,,,,,,,,,,,,,,,,654.4998670999776,654.7999923999887,654.8140901000006,655.1192611999868,655.1684131999791,655.474041199981,655.4676780999871,655.7719274999981,655.8142379999917,656.1192956999876,656.1684138999844,656.4737119999772,656.4676575000049,656.7721229000017,656.8141499999911,657.1190369999968,657.1683988999866,657.4740902000049,657.467674399988,657.7722224000026,657.8144241999835,658.1195112999994,658.1683158999949,None,6969,001,2021_Jan_25_0204,new_STLI_updated,2020.2.10,143.67671590889637,
LZ_scrambled\LZ_scrambled_111.jpg,LZ_scrambled\LZ_scrambled_26.jpg,LZ_scrambled\LZ_scrambled_232.jpg,LZ_scrambled\LZ_scrambled_99.jpg,None,None,None,None,None,None,None,None,None,None,None,None,1.0,LZ_scrambled\LZ_scrambled_13.jpg,0.0,l,2.0,21.0,0,91,91,91,,,,,,,,,,,,,,,,,,,662.4676817999862,None,663.5447818999819,664.543336200004,664.5302734999859,665.5297620999918,665.5297620999918,666.5297193999868,666.5297193999868,None,667.4928013999888,668.4971681000025,668.4885113000055,None,l,1,1.7200438999861944,1.0021021800057497,None,,,,,,,,,,,,,,,,,,,,,,,,,,,,,,,,,,,,,,,,,6969,001,2021_Jan_25_0204,new_STLI_updated,2020.2.10,143.67671590889637,
LZ_noise\LZ_noise_168.jpg,LZ_noise\LZ_noise_201.jpg,LZ_noise\LZ_noise_84.jpg,LZ_noise\LZ_noise_16.jpg,None,None,None,None,None,None,None,None,None,None,None,None,1.0,LZ_noise\LZ_noise_200.jpg,0.0,l,3.0,31.0,0,92,92,92,,,,,,,,,,,,,,,,,,,670.2216884999943,None,671.2525600999943,672.2518645999953,672.2317749999929,673.2309851000027,673.2309851000027,674.23141019998,674.23141019998,None,675.2310218999919,676.2337296000042,676.2242886000022,None,l,1,1.7759864999970887,1.000601559993811,None,,,,,,,,,,,,,,,,,,,,,,,,,,,,,,,,,,,,,,,,,6969,001,2021_Jan_25_0204,new_STLI_updated,2020.2.10,143.67671590889637,
LZ_noise\LZ_noise_236.jpg,LZ_noise\LZ_noise_110.jpg,LZ_noise\LZ_noise_112.jpg,LZ_noise\LZ_noise_171.jpg,None,None,None,None,None,None,None,None,None,None,None,None,1.0,LZ_noise\LZ_noise_19.jpg,0.0,l,3.0,31.0,0,93,93,93,,,,,,,,,,,,,,,,,,,678.0124467999849,None,679.0388836000056,680.0437131999934,680.0306453999947,681.0302118999825,681.0302118999825,682.0301261999994,682.0301261999994,None,683.0178032999975,684.0240319999866,684.0157647999877,None,l,1,2.200634100008756,1.0046925600036047,None,,,,,,,,,,,,,,,,,,,,,,,,,,,,,,,,,,,,,,,,,6969,001,2021_Jan_25_0204,new_STLI_updated,2020.2.10,143.67671590889637,
LZ_natural\LZ_natural_78.jpg,LZ_natural\LZ_natural_64.jpg,LZ_natural\LZ_natural_208.jpg,LZ_natural\LZ_natural_201.jpg,LZ_natural\LZ_natural_97.jpg,LZ_natural\LZ_natural_56.jpg,LZ_natural\LZ_natural_178.jpg,LZ_natural\LZ_natural_149.jpg,None,None,None,None,None,None,None,None,2.0,LZ_natural\LZ_natural_178.jpg,1.0,a,1.0,12.0,0,94,94,94,,,,,,,,,,,,,,,,,,,686.2295447999786,None,,,,,,,,,691.1873115999915,692.192153299984,692.1829886999913,None,l,0,0.3694688999967184,1.001327060017502,None,687.2553751999803,687.7101132999815,687.752136199997,688.2030816999904,688.2522143999813,688.7032286000031,688.7522044999932,689.2029829999956,689.2521351999894,689.7032263999863,689.7524998000008,690.2032187999866,690.2521370000031,690.7030733999854,690.7522272999922,None,,,,,,,,,,,,,,,,,,,,,,,,,6969,001,2021_Jan_25_0204,new_STLI_updated,2020.2.10,143.67671590889637,
LZ_natural\LZ_natural_213.jpg,LZ_natural\LZ_natural_232.jpg,LZ_natural\LZ_natural_216.jpg,LZ_natural\LZ_natural_204.jpg,LZ_natural\LZ_natural_50.jpg,LZ_natural\LZ_natural_235.jpg,LZ_natural\LZ_natural_193.jpg,LZ_natural\LZ_natural_86.jpg,LZ_natural\LZ_natural_169.jpg,LZ_natural\LZ_natural_99.jpg,LZ_natural\LZ_natural_117.jpg,LZ_natural\LZ_natural_111.jpg,None,None,None,None,3.0,LZ_natural\LZ_natural_216.jpg,1.0,a,1.0,13.0,0,95,95,95,,,,,,,,,,,,,,,,,,,692.5689759999805,None,,,,,,,,,697.5748648000008,698.5806430999946,698.5719543999876,None,l,0,0.8524794999975711,1.002177060028771,None,,,,,,,,,,,,,,,,,693.6394878999854,693.9391613999906,693.9814647999883,694.2867092999804,694.3290066999907,694.6342809000053,694.6277096999984,694.9321195999801,694.9812800999789,695.2864486000035,695.3288982999802,695.6342342999997,695.6277138000005,695.9321590999898,695.9812665999925,696.2864193999849,696.3287098000001,696.6342969999823,696.6276933999907,696.9325160000008,696.9812473999918,697.2867123000033,697.328963899985,None,6969,001,2021_Jan_25_0204,new_STLI_updated,2020.2.10,143.67671590889637,
LZ_scrambled\LZ_scrambled_8.jpg,LZ_scrambled\LZ_scrambled_216.jpg,LZ_scrambled\LZ_scrambled_79.jpg,LZ_scrambled\LZ_scrambled_237.jpg,LZ_scrambled\LZ_scrambled_177.jpg,LZ_scrambled\LZ_scrambled_15.jpg,LZ_scrambled\LZ_scrambled_228.jpg,LZ_scrambled\LZ_scrambled_110.jpg,LZ_scrambled\LZ_scrambled_67.jpg,LZ_scrambled\LZ_scrambled_34.jpg,LZ_scrambled\LZ_scrambled_74.jpg,LZ_scrambled\LZ_scrambled_128.jpg,None,None,None,None,3.0,LZ_scrambled\LZ_scrambled_15.jpg,1.0,a,2.0,23.0,0,96,96,96,,,,,,,,,,,,,,,,,,,699.4360806999903,None,,,,,,,,,704.4597263000032,705.4630613999907,705.4543024000013,None,l,0,0.570448899990879,1.0055001400178298,None,,,,,,,,,,,,,,,,,700.7100633999798,701.0155002999818,701.0443737999885,701.3492665999802,701.3915595999861,701.696647899982,701.6905685999955,701.995848599996,702.0443092999922,702.3493146999972,702.3917137999961,702.6969510999916,702.690615999978,702.9950179999869,703.0439912999864,703.3490391999949,703.3917411000002,703.6966125000035,703.6906664999842,703.9949768999941,704.0444450999785,704.349063599977,704.3917227999773,None,6969,001,2021_Jan_25_0204,new_STLI_updated,2020.2.10,143.67671590889637,
LZ_scrambled\LZ_scrambled_71.jpg,LZ_scrambled\LZ_scrambled_186.jpg,LZ_scrambled\LZ_scrambled_214.jpg,LZ_scrambled\LZ_scrambled_223.jpg,None,None,None,None,None,None,None,None,None,None,None,None,1.0,LZ_scrambled\LZ_scrambled_71.jpg,1.0,a,2.0,21.0,0,97,97,97,,,,,,,,,,,,,,,,,,,706.0396879999898,None,707.0919119000027,708.0928834999795,708.0863692999992,709.0862174999784,709.0862174999784,710.0862399000034,710.0862399000034,None,711.0649174999853,712.0668699999806,712.0580959999934,None,l,0,1.8385135999997146,1.0036101399746258,None,,,,,,,,,,,,,,,,,,,,,,,,,,,,,,,,,,,,,,,,,6969,001,2021_Jan_25_0204,new_STLI_updated,2020.2.10,143.67671590889637,
LZ_scrambled\LZ_scrambled_91.jpg,LZ_scrambled\LZ_scrambled_218.jpg,LZ_scrambled\LZ_scrambled_55.jpg,LZ_scrambled\LZ_scrambled_118.jpg,LZ_scrambled\LZ_scrambled_189.jpg,LZ_scrambled\LZ_scrambled_168.jpg,LZ_scrambled\LZ_scrambled_206.jpg,LZ_scrambled\LZ_scrambled_138.jpg,LZ_scrambled\LZ_scrambled_22.jpg,LZ_scrambled\LZ_scrambled_23.jpg,LZ_scrambled\LZ_scrambled_163.jpg,LZ_scrambled\LZ_scrambled_140.jpg,None,None,None,None,3.0,LZ_scrambled\LZ_scrambled_126.jpg,0.0,l,2.0,23.0,0,98,98,98,,,,,,,,,,,,,,,,,,,713.9105009999766,None,,,,,,,,,718.9313186999934,719.9353987999784,719.9194328000012,None,l,1,0.45764380000764504,0.9996901399863418,None,,,,,,,,,,,,,,,,,715.1549856999773,715.4604551999946,715.4955735999974,715.8007310999965,715.8500133999914,716.1552164999885,716.1489732000045,716.4531944000046,716.4957102999906,716.8006788999774,716.8501854999922,717.1552151999786,717.1491796000046,717.4534028999915,717.4956451999897,717.8008048000047,717.8502256999782,718.1552008999861,718.1493239999982,718.4536514999927,718.4960373999784,718.8007686999917,718.8499882000033,None,6969,001,2021_Jan_25_0204,new_STLI_updated,2020.2.10,143.67671590889637,
LZ_natural\LZ_natural_72.jpg,LZ_natural\LZ_natural_43.jpg,LZ_natural\LZ_natural_130.jpg,LZ_natural\LZ_natural_212.jpg,LZ_natural\LZ_natural_67.jpg,LZ_natural\LZ_natural_164.jpg,LZ_natural\LZ_natural_39.jpg,LZ_natural\LZ_natural_58.jpg,LZ_natural\LZ_natural_4.jpg,LZ_natural\LZ_natural_187.jpg,LZ_natural\LZ_natural_48.jpg,LZ_natural\LZ_natural_109.jpg,None,None,None,None,3.0,LZ_natural\LZ_natural_58.jpg,1.0,a,1.0,13.0,0,99,99,99,,,,,,,,,,,,,,,,,,,720.3900524999772,None,,,,,,,,,725.4061246999772,726.4073899999785,726.398523699987,None,l,0,0.9700385000032838,1.0062115200271364,None,,,,,,,,,,,,,,,,,721.4659572999808,721.7662291000015,721.780689599982,722.0854316999903,722.1274099999864,722.433278099983,722.433278099983,722.7382094999775,722.7806993999984,723.0856206000026,723.1344273999857,723.4400635999918,723.4335678999778,723.7380488000053,723.7803944000043,724.0854738999915,724.1348983999924,724.4398066999856,724.4334236999857,724.7382033999893,724.7807757999981,725.0853631999926,725.1279509000015,None,6969,001,2021_Jan_25_0204,new_STLI_updated,2020.2.10,143.67671590889637,
LZ_scrambled\LZ_scrambled_101.jpg,LZ_scrambled\LZ_scrambled_115.jpg,LZ_scrambled\LZ_scrambled_95.jpg,LZ_scrambled\LZ_scrambled_25.jpg,LZ_scrambled\LZ_scrambled_236.jpg,LZ_scrambled\LZ_scrambled_10.jpg,LZ_scrambled\LZ_scrambled_92.jpg,LZ_scrambled\LZ_scrambled_211.jpg,LZ_scrambled\LZ_scrambled_62.jpg,LZ_scrambled\LZ_scrambled_66.jpg,LZ_scrambled\LZ_scrambled_53.jpg,LZ_scrambled\LZ_scrambled_41.jpg,None,None,None,None,3.0,LZ_scrambled\LZ_scrambled_95.jpg,1.0,a,2.0,23.0,0,100,100,100,,,,,,,,,,,,,,,,,,,727.3829778999789,None,,,,,,,,,732.4116961999971,733.413587899995,733.4056497999991,None,l,0,1.0672290999791585,1.0054317400208674,None,,,,,,,,,,,,,,,,,728.5581270999974,728.8630728999851,728.8987418999895,729.2037156999868,729.2459614999825,729.5510154999793,729.5449341999774,729.8494714999979,729.8985772999877,730.203698199999,730.2458646000014,730.5512111999851,730.5452455999912,730.8498583000037,730.8989794999943,731.2037489999784,731.2460275999911,731.5514514999813,731.5449616999831,731.8492746999837,731.8989829999919,732.2038573999889,732.2458707999904,None,6969,001,2021_Jan_25_0204,new_STLI_updated,2020.2.10,143.67671590889637,
LZ_natural\LZ_natural_26.jpg,LZ_natural\LZ_natural_92.jpg,LZ_natural\LZ_natural_145.jpg,LZ_natural\LZ_natural_98.jpg,LZ_natural\LZ_natural_85.jpg,LZ_natural\LZ_natural_93.jpg,LZ_natural\LZ_natural_221.jpg,LZ_natural\LZ_natural_176.jpg,LZ_natural\LZ_natural_18.jpg,LZ_natural\LZ_natural_81.jpg,LZ_natural\LZ_natural_34.jpg,LZ_natural\LZ_natural_127.jpg,None,None,None,None,3.0,LZ_natural\LZ_natural_81.jpg,1.0,a,1.0,13.0,0,101,101,101,,,,,,,,,,,,,,,,,,,734.487032199977,None,,,,,,,,,739.4987564999901,740.507283599989,740.489090099989,None,l,0,2.3112777000060305,1.0001213600044139,None,,,,,,,,,,,,,,,,,735.5646821999981,735.8633593999839,735.878051799984,736.1827420000045,736.231816399988,736.5376523000014,736.5310966999969,736.8357451999909,736.8777611999831,737.182813899999,737.2322543000046,737.5375969999877,737.5312707999838,737.8356621999992,737.8778496999876,738.1828608999786,738.2322534999985,738.5375171999913,738.5313954000012,738.8355502999912,738.8780754999898,739.1828841999813,739.2322052999807,None,6969,001,2021_Jan_25_0204,new_STLI_updated,2020.2.10,143.67671590889637,
LZ_scrambled\LZ_scrambled_150.jpg,LZ_scrambled\LZ_scrambled_172.jpg,LZ_scrambled\LZ_scrambled_50.jpg,LZ_scrambled\LZ_scrambled_225.jpg,LZ_scrambled\LZ_scrambled_210.jpg,LZ_scrambled\LZ_scrambled_136.jpg,LZ_scrambled\LZ_scrambled_156.jpg,LZ_scrambled\LZ_scrambled_6.jpg,LZ_scrambled\LZ_scrambled_153.jpg,LZ_scrambled\LZ_scrambled_90.jpg,LZ_scrambled\LZ_scrambled_76.jpg,LZ_scrambled\LZ_scrambled_171.jpg,None,None,None,None,3.0,LZ_scrambled\LZ_scrambled_236.jpg,0.0,l,2.0,23.0,0,102,102,102,,,,,,,,,,,,,,,,,,,742.8116218999785,None,,,,,,,,,747.8386728999903,748.8450867999927,748.836693899997,None,l,1,2.6644484999997076,1.0065959400089923,None,,,,,,,,,,,,,,,,,743.9935185999784,744.2938402,744.3296053999802,744.6342737999803,744.6768664999981,744.9825219999766,744.9825219999766,745.2869728999794,745.3298133999924,745.6343175999937,745.6767440999974,745.9823327999911,745.9823327999911,746.2871398999996,746.3294622999965,746.634309599991,746.677212199982,746.9823056999885,746.9823056999885,747.2873819999804,747.3293686999823,747.6345604999806,747.677163299988,None,6969,001,2021_Jan_25_0204,new_STLI_updated,2020.2.10,143.67671590889637,
LZ_scrambled\LZ_scrambled_56.jpg,LZ_scrambled\LZ_scrambled_57.jpg,LZ_scrambled\LZ_scrambled_143.jpg,LZ_scrambled\LZ_scrambled_165.jpg,LZ_scrambled\LZ_scrambled_106.jpg,LZ_scrambled\LZ_scrambled_120.jpg,LZ_scrambled\LZ_scrambled_209.jpg,LZ_scrambled\LZ_scrambled_149.jpg,LZ_scrambled\LZ_scrambled_159.jpg,LZ_scrambled\LZ_scrambled_84.jpg,LZ_scrambled\LZ_scrambled_75.jpg,LZ_scrambled\LZ_scrambled_114.jpg,None,None,None,None,3.0,LZ_scrambled\LZ_scrambled_182.jpg,0.0,l,2.0,23.0,0,103,103,103,,,,,,,,,,,,,,,,,,,751.5174209999968,None,,,,,,,,,756.5338657999819,757.5403968000028,757.5313108999981,None,l,1,1.828972099989187,1.0031895200372674,None,,,,,,,,,,,,,,,,,752.6628554000054,752.9680895999772,753.0031850999803,753.3080249999766,753.357560000004,753.6628532999894,753.6566713999782,753.960832199984,754.0032868999988,754.307994999981,754.3573051999847,754.6627716999792,754.6565912999795,754.9610575999832,755.0032855999889,755.3082066999923,755.3577839999925,755.6628455999889,755.6567284000048,755.961069699988,756.0032990000036,756.3080368999799,756.3574573999795,None,6969,001,2021_Jan_25_0204,new_STLI_updated,2020.2.10,143.67671590889637,
LZ_scrambled\LZ_scrambled_155.jpg,LZ_scrambled\LZ_scrambled_32.jpg,LZ_scrambled\LZ_scrambled_98.jpg,LZ_scrambled\LZ_scrambled_49.jpg,LZ_scrambled\LZ_scrambled_35.jpg,LZ_scrambled\LZ_scrambled_160.jpg,LZ_scrambled\LZ_scrambled_46.jpg,LZ_scrambled\LZ_scrambled_102.jpg,LZ_scrambled\LZ_scrambled_18.jpg,LZ_scrambled\LZ_scrambled_130.jpg,LZ_scrambled\LZ_scrambled_89.jpg,LZ_scrambled\LZ_scrambled_148.jpg,None,None,None,None,3.0,LZ_scrambled\LZ_scrambled_173.jpg,0.0,l,2.0,23.0,0,104,104,104,,,,,,,,,,,,,,,,,,,759.3749612999964,None,,,,,,,,,764.4064597999968,765.4071339999791,765.3993079999927,None,l,1,0.42473089997656643,1.0032756000291556,None,,,,,,,,,,,,,,,,,760.5437966999889,760.8430891000025,760.885242599994,761.190340000001,761.239238899987,761.5447147999948,761.538528199977,761.8428282999957,761.8854133999848,762.1902921999863,762.23275559998,762.5383700999955,762.5383700999955,762.8428739999945,762.8853879999951,763.1899228999973,763.2328969999799,763.5379857999797,763.5379857999797,763.8430918999948,763.8853402999812,764.1902620999899,764.2325691999868,None,6969,001,2021_Jan_25_0204,new_STLI_updated,2020.2.10,143.67671590889637,
LZ_scrambled\LZ_scrambled_85.jpg,LZ_scrambled\LZ_scrambled_239.jpg,LZ_scrambled\LZ_scrambled_36.jpg,LZ_scrambled\LZ_scrambled_194.jpg,LZ_scrambled\LZ_scrambled_68.jpg,LZ_scrambled\LZ_scrambled_184.jpg,LZ_scrambled\LZ_scrambled_93.jpg,LZ_scrambled\LZ_scrambled_88.jpg,LZ_scrambled\LZ_scrambled_108.jpg,LZ_scrambled\LZ_scrambled_180.jpg,LZ_scrambled\LZ_scrambled_179.jpg,LZ_scrambled\LZ_scrambled_233.jpg,None,None,None,None,3.0,LZ_scrambled\LZ_scrambled_158.jpg,0.0,l,2.0,23.0,0,105,105,105,,,,,,,,,,,,,,,,,,,765.8419385000016,None,,,,,,,,,770.862761700002,771.8669558999827,771.8577520999825,None,l,1,0.24678669997956604,1.000425179983722,None,,,,,,,,,,,,,,,,,767.008986300003,767.3084099999978,767.3508060000022,767.6554403000046,767.7050335999811,768.010363599984,768.0038882999797,768.3082143999927,768.3509729999932,768.6557224999997,768.7048328999954,769.0035110999888,769.0035110999888,769.3081841999956,769.3508689999871,769.6558172999939,769.7051295999845,770.0100505999872,770.0041218999831,770.3083056999894,770.3510010000027,770.6557403999905,770.7050654999912,None,6969,001,2021_Jan_25_0204,new_STLI_updated,2020.2.10,143.67671590889637,
LZ_scrambled\LZ_scrambled_132.jpg,LZ_scrambled\LZ_scrambled_127.jpg,LZ_scrambled\LZ_scrambled_197.jpg,LZ_scrambled\LZ_scrambled_30.jpg,LZ_scrambled\LZ_scrambled_125.jpg,LZ_scrambled\LZ_scrambled_139.jpg,LZ_scrambled\LZ_scrambled_119.jpg,LZ_scrambled\LZ_scrambled_183.jpg,LZ_scrambled\LZ_scrambled_109.jpg,LZ_scrambled\LZ_scrambled_17.jpg,LZ_scrambled\LZ_scrambled_205.jpg,LZ_scrambled\LZ_scrambled_96.jpg,None,None,None,None,3.0,LZ_scrambled\LZ_scrambled_134.jpg,0.0,l,2.0,23.0,0,106,106,106,,,,,,,,,,,,,,,,,,,772.120995699981,None,,,,,,,,,777.135346199997,778.1372762999963,778.1284366000036,None,l,1,0.45586019998881966,1.0028764799935743,None,,,,,,,,,,,,,,,,,773.2928642999905,773.5931480999861,773.6354637999902,773.9405317000055,773.9828664999804,774.2879803999967,774.2818621000042,774.585978099989,774.6355009999825,774.9404964999994,774.9826773999957,775.2878949999867,775.2816166999983,775.5862597999803,775.6357516999997,775.9402500999859,775.9827310999972,776.2879529999918,776.281887899997,776.5861308999883,776.6357306999853,776.9404461999948,776.9829510999843,None,6969,001,2021_Jan_25_0204,new_STLI_updated,2020.2.10,143.67671590889637,
LZ_scrambled\LZ_scrambled_185.jpg,LZ_scrambled\LZ_scrambled_112.jpg,LZ_scrambled\LZ_scrambled_63.jpg,LZ_scrambled\LZ_scrambled_27.jpg,LZ_scrambled\LZ_scrambled_224.jpg,LZ_scrambled\LZ_scrambled_152.jpg,LZ_scrambled\LZ_scrambled_203.jpg,LZ_scrambled\LZ_scrambled_220.jpg,LZ_scrambled\LZ_scrambled_227.jpg,LZ_scrambled\LZ_scrambled_21.jpg,LZ_scrambled\LZ_scrambled_234.jpg,LZ_scrambled\LZ_scrambled_169.jpg,None,None,None,None,3.0,LZ_scrambled\LZ_scrambled_203.jpg,1.0,a,2.0,23.0,0,107,107,107,,,,,,,,,,,,,,,,,,,778.599153099989,None,,,,,,,,,783.61451699998,784.6169722999912,784.6078658000042,None,l,0,1.7359969000099227,1.0036296799953561,None,,,,,,,,,,,,,,,,,779.7624343999778,780.0655062999867,780.101059299981,780.405629099987,780.4480429999821,780.7538149000029,780.7538149000029,781.0587597999838,781.1008867999772,781.4056092999817,781.4480718999985,781.7538115999778,781.7538115999778,782.0585951999819,782.1010630999808,782.405605899985,782.4481244999915,782.7538325999922,782.7538325999922,783.0584359999921,783.1008623999951,783.4057629999879,783.4480913000007,None,6969,001,2021_Jan_25_0204,new_STLI_updated,2020.2.10,143.67671590889637,
None,None,None,None,None,None,None,None,None,None,None,None,None,None,None,None,None,None,None,None,None,None,0,108,108,108,,,,,,,,,,,,,,,,,,,786.3562397999922,None,,,,,,,,,791.3593653999851,792.3653494000027,792.3502259999805,None,l,0,3.3475069999985863,1.0058161600027233,None,,,,,,,,,,,,,,,,,787.3569830999768,787.6626569999789,787.6975601000013,788.0027587999939,788.0515815999825,788.3572932999814,788.3501909000042,788.6556100999878,788.6975845999841,789.0029803999932,789.0525200999982,789.3571186999907,789.3504139999859,789.655681299977,789.6977232999925,790.0029907999851,790.0517836999788,790.3573794999975,790.3504903999856,790.6558183000016,790.6976098000014,791.0030283999804,791.0518179999781,None,6969,001,2021_Jan_25_0204,new_STLI_updated,2020.2.10,143.67671590889637,
None,None,None,None,None,None,None,None,None,None,None,None,None,None,None,None,None,None,None,None,None,None,0,109,109,109,,,,,,,,,,,,,,,,,,,795.7148241999967,None,,,,,,,,,800.7197581999935,801.7258794999798,801.7116529999766,None,a,0,2.0808247000095434,1.0001300600124523,None,,,,,,,,,,,,,,,,,796.718587099982,797.0237830999831,797.0586135000049,797.3641568000021,797.4128106999851,797.7185515000019,797.7115928999847,798.0171217999887,798.0586178999802,798.3640573000011,798.4131043999805,798.7184002999857,798.7114407999907,799.0172521999921,799.0588922000024,799.3644677999837,799.4130375999957,799.7185690999904,799.7116053999925,800.0172612000024,800.0588514999836,800.3642375999771,800.4128316999995,None,6969,001,2021_Jan_25_0204,new_STLI_updated,2020.2.10,143.67671590889637,
,,,,,,,,,,,,,,,,,,,,,,,,,,,,,,,,,,,,,,,,,,,,803.8047244999907,None,,,,,,,,,,,,,,,,,,,,,,,,,,,,,,,,,,,,,,,,,,,,,,,,,,,,,,,,,,,,,,,,
