imageone,imagetwo,imagethree,imagefour,imagefive,imagesix,imageseven,imageeight,imagenine,imageten,imageeleven,imagetwelve,imagethirteen,imagefourteen,imagefifteen,imagesixteen,frequency,imageTL,imageBL,imageTR,imageBR,correct_answer,stimulus_type,condition_code,block_one.thisRepN,block_one.thisTrialN,block_one.thisN,block_one.thisIndex,fone_control_b1.thisRepN,fone_control_b1.thisTrialN,fone_control_b1.thisN,fone_control_b1.thisIndex,ftwo_control_b1.thisRepN,ftwo_control_b1.thisTrialN,ftwo_control_b1.thisN,ftwo_control_b1.thisIndex,fthree_control_b1.thisRepN,fthree_control_b1.thisTrialN,fthree_control_b1.thisN,fthree_control_b1.thisIndex,block_two.thisRepN,block_two.thisTrialN,block_two.thisN,block_two.thisIndex,fone_control_b2.thisRepN,fone_control_b2.thisTrialN,fone_control_b2.thisN,fone_control_b2.thisIndex,ftwo_control_b2.thisRepN,ftwo_control_b2.thisTrialN,ftwo_control_b2.thisN,ftwo_control_b2.thisIndex,fthree_control_b2.thisRepN,fthree_control_b2.thisTrialN,fthree_control_b2.thisN,fthree_control_b2.thisIndex,block_three.thisRepN,block_three.thisTrialN,block_three.thisN,block_three.thisIndex,fone_control_b3.thisRepN,fone_control_b3.thisTrialN,fone_control_b3.thisN,fone_control_b3.thisIndex,ftwo_control_b3.thisRepN,ftwo_control_b3.thisTrialN,ftwo_control_b3.thisN,ftwo_control_b3.thisIndex,fthree_control_b3.thisRepN,fthree_control_b3.thisTrialN,fthree_control_b3.thisN,fthree_control_b3.thisIndex,text.started,text.stopped,Crossm.started,Crossm.stopped,Presentation_image_f1_1.started,Presentation_image_f1_1.stopped,Presentation_image_f1_2.started,Presentation_image_f1_2.stopped,Presentation_image_f1_3.started,Presentation_image_f1_3.stopped,Presentation_image_f1_4.started,Presentation_image_f1_4.stopped,Fixation_cross.started,Fixation_cross.stopped,Topleft.started,Topleft.stopped,Topright.started,Topright.stopped,Bottomleft.started,Bottomleft.stopped,Bottomright.started,Bottomright.stopped,key_resp.keys,key_resp.corr,key_resp.rt,key_resp.started,key_resp.stopped,Presentation_image_f2_1.started,Presentation_image_f2_1.stopped,Presentation_image_f2_2.started,Presentation_image_f2_2.stopped,Presentation_image_f2_3.started,Presentation_image_f2_3.stopped,Presentation_image_f2_4.started,Presentation_image_f2_4.stopped,Presentation_image_f2_5.started,Presentation_image_f2_5.stopped,Presentation_image_f2_6.started,Presentation_image_f2_6.stopped,Presentation_image_f2_7.started,Presentation_image_f2_7.stopped,Presentation_image_f2_8.started,Presentation_image_f2_8.stopped,Presentation_image_f3_1.started,Presentation_image_f3_1.stopped,Presentation_image_f3_2.started,Presentation_image_f3_2.stopped,Presentation_image_f3_3.started,Presentation_image_f3_3.stopped,Presentation_image_f3_4.started,Presentation_image_f3_4.stopped,Presentation_image_f3_5.started,Presentation_image_f3_5.stopped,Presentation_image_f3_6.started,Presentation_image_f3_6.stopped,Presentation_image_f3_7.started,Presentation_image_f3_7.stopped,Presentation_image_f3_8.started,Presentation_image_f3_8.stopped,Presentation_image_f3_9.started,Presentation_image_f3_9.stopped,Presentation_image_f3_10.started,Presentation_image_f3_10.stopped,Presentation_image_f3_11.started,Presentation_image_f3_11.stopped,Presentation_image_f3_12.started,Presentation_image_f3_12.stopped,text_break.started,text_break.stopped,text_2.started,text_2.stopped,participant,session,date,expName,psychopyVersion,frameRate,
LZ_natural\LZ_natural_180.jpg,LZ_natural\LZ_natural_80.jpg,LZ_natural\LZ_natural_234.jpg,LZ_natural\LZ_natural_35.jpg,     ,     ,     ,     ,     ,     ,     ,     ,     ,     ,     ,     ,1,LZ_natural\LZ_natural_204.jpg,LZ_natural\LZ_natural_180.jpg,LZ_natural\LZ_natural_102.jpg,LZ_natural\LZ_natural_181.jpg,    z,1,11,0,0,0,0,0,0,0,0,,,,,,,,,,,,,,,,,,,,,,,,,,,,,,,,,,,,,,,,,19.19110609998461,None,20.077683600015007,None,21.084182900027372,22.08613890002016,22.051930099958554,23.05153189995326,23.05153189995326,24.051854399964213,24.051854399964213,None,,,,,,,,,,,,,,,,,,,,,,,,,,,,,,,,,,,,,,,,,,,,,,,,,,,,,,,,,,,,99,001,2020_Dec_09_1512,new_STLI_practise,2020.2.10,143.78496670293111,
LZ_natural\LZ_natural_180.jpg,LZ_natural\LZ_natural_80.jpg,LZ_natural\LZ_natural_234.jpg,LZ_natural\LZ_natural_35.jpg,     ,     ,     ,     ,     ,     ,     ,     ,     ,     ,     ,     ,1,LZ_natural\LZ_natural_204.jpg,LZ_natural\LZ_natural_180.jpg,LZ_natural\LZ_natural_102.jpg,LZ_natural\LZ_natural_181.jpg,    z,1,11,0,0,0,0,,,,,,,,,,,,,,,,,,,,,,,,,,,,,,,,,,,,,,,,,,,,,,,,,,,,,,,,,25.076537400018424,26.09010169992689,26.077562500024214,None,26.077562500024214,None,26.077562500024214,None,26.077562500024214,None,z,0,0.6850236000027508,1.0103707099333405,None,,,,,,,,,,,,,,,,,,,,,,,,,,,,,,,,,,,,,,,,,,,,,99,001,2020_Dec_09_1512,new_STLI_practise,2020.2.10,143.78496670293111,
LZ_natural\LZ_natural_107.jpg,LZ_natural\LZ_natural_123.jpg,LZ_natural\LZ_natural_153.jpg,LZ_natural\LZ_natural_151.jpg,     ,     ,     ,     ,     ,     ,     ,     ,     ,     ,     ,     ,1,LZ_natural\LZ_natural_198.jpg,LZ_natural\LZ_natural_145.jpg,LZ_natural\LZ_natural_18.jpg,LZ_natural\LZ_natural_107.jpg,    m,1,11,0,1,1,1,0,0,0,0,,,,,,,,,,,,,,,,,,,,,,,,,,,,,,,,,,,,,,,,,,,26.782248699921183,None,27.85809400002472,28.858890799921937,28.852128900005482,29.85726269998122,29.850839799968526,30.850484799942933,30.850484799942933,None,,,,,,,,,,,,,,,,,,,,,,,,,,,,,,,,,,,,,,,,,,,,,,,,,,,,,,,,,,,,99,001,2020_Dec_09_1512,new_STLI_practise,2020.2.10,143.78496670293111,
LZ_natural\LZ_natural_107.jpg,LZ_natural\LZ_natural_123.jpg,LZ_natural\LZ_natural_153.jpg,LZ_natural\LZ_natural_151.jpg,     ,     ,     ,     ,     ,     ,     ,     ,     ,     ,     ,     ,1,LZ_natural\LZ_natural_198.jpg,LZ_natural\LZ_natural_145.jpg,LZ_natural\LZ_natural_18.jpg,LZ_natural\LZ_natural_107.jpg,    m,1,11,0,1,1,1,,,,,,,,,,,,,,,,,,,,,,,,,,,,,,,,,,,,,,,,,,,,,,,,,,,,,,,,,31.8704807999311,32.878153699915856,32.86621629993897,None,32.86621629993897,None,32.86621629993897,None,32.86621629993897,None,m,0,1.2819455000571907,1.0066333098802716,None,,,,,,,,,,,,,,,,,,,,,,,,,,,,,,,,,,,,,,,,,,,,,99,001,2020_Dec_09_1512,new_STLI_practise,2020.2.10,143.78496670293111,
LZ_natural\LZ_natural_87.jpg,LZ_natural\LZ_natural_22.jpg,LZ_natural\LZ_natural_74.jpg,LZ_natural\LZ_natural_179.jpg,     ,     ,     ,     ,     ,     ,     ,     ,     ,     ,     ,     ,1,LZ_natural\LZ_natural_29.jpg,LZ_natural\LZ_natural_75.jpg,LZ_natural\LZ_natural_189.jpg,LZ_natural\LZ_natural_74.jpg,    m,1,11,0,2,2,2,0,0,0,0,,,,,,,,,,,,,,,,,,,,,,,,,,,,,,,,,,,,,,,,,,,34.16507530002855,None,35.29657599993516,36.29737149993889,36.291568399989046,37.296200899989344,37.289901399984956,38.295497499988414,38.289547299966216,None,,,,,,,,,,,,,,,,,,,,,,,,,,,,,,,,,,,,,,,,,,,,,,,,,,,,,,,,,,,,99,001,2020_Dec_09_1512,new_STLI_practise,2020.2.10,143.78496670293111,
LZ_natural\LZ_natural_87.jpg,LZ_natural\LZ_natural_22.jpg,LZ_natural\LZ_natural_74.jpg,LZ_natural\LZ_natural_179.jpg,     ,     ,     ,     ,     ,     ,     ,     ,     ,     ,     ,     ,1,LZ_natural\LZ_natural_29.jpg,LZ_natural\LZ_natural_75.jpg,LZ_natural\LZ_natural_189.jpg,LZ_natural\LZ_natural_74.jpg,    m,1,11,0,2,2,2,,,,,,,,,,,,,,,,,,,,,,,,,,,,,,,,,,,,,,,,,,,,,,,,,,,,,,,,,39.258150000008754,40.267411099979654,40.25517219991889,None,40.25517219991889,None,40.25517219991889,None,40.25517219991889,None,m,0,1.2158573999768123,1.005223409854807,None,,,,,,,,,,,,,,,,,,,,,,,,,,,,,,,,,,,,,,,,,,,,,99,001,2020_Dec_09_1512,new_STLI_practise,2020.2.10,143.78496670293111,
LZ_natural\LZ_natural_191.jpg,LZ_natural\LZ_natural_150.jpg,LZ_natural\LZ_natural_235.jpg,LZ_natural\LZ_natural_205.jpg,     ,     ,     ,     ,     ,     ,     ,     ,     ,     ,     ,     ,1,LZ_natural\LZ_natural_206.jpg,LZ_natural\LZ_natural_176.jpg,LZ_natural\LZ_natural_2.jpg,LZ_natural\LZ_natural_191.jpg,    m,1,11,0,3,3,3,0,0,0,0,,,,,,,,,,,,,,,,,,,,,,,,,,,,,,,,,,,,,,,,,,,41.5042958999984,None,42.631732199923135,43.635215800022706,43.628801699960604,44.62838579993695,44.62838579993695,45.628319400013424,45.628319400013424,None,,,,,,,,,,,,,,,,,,,,,,,,,,,,,,,,,,,,,,,,,,,,,,,,,,,,,,,,,,,,99,001,2020_Dec_09_1512,new_STLI_practise,2020.2.10,143.78496670293111,
LZ_natural\LZ_natural_191.jpg,LZ_natural\LZ_natural_150.jpg,LZ_natural\LZ_natural_235.jpg,LZ_natural\LZ_natural_205.jpg,     ,     ,     ,     ,     ,     ,     ,     ,     ,     ,     ,     ,1,LZ_natural\LZ_natural_206.jpg,LZ_natural\LZ_natural_176.jpg,LZ_natural\LZ_natural_2.jpg,LZ_natural\LZ_natural_191.jpg,    m,1,11,0,3,3,3,,,,,,,,,,,,,,,,,,,,,,,,,,,,,,,,,,,,,,,,,,,,,,,,,,,,,,,,,46.62263829994481,47.628561299992725,47.61657589999959,None,47.61657589999959,None,47.61657589999959,None,47.61657589999959,None,m,0,1.4193314999574795,1.005092589999549,None,,,,,,,,,,,,,,,,,,,,,,,,,,,,,,,,,,,,,,,,,,,,,99,001,2020_Dec_09_1512,new_STLI_practise,2020.2.10,143.78496670293111,
LZ_natural\LZ_natural_227.jpg,LZ_natural\LZ_natural_118.jpg,LZ_natural\LZ_natural_211.jpg,LZ_natural\LZ_natural_7.jpg,     ,     ,     ,     ,     ,     ,     ,     ,     ,     ,     ,     ,1,LZ_natural\LZ_natural_27.jpg,LZ_natural\LZ_natural_165.jpg,LZ_natural\LZ_natural_10.jpg,LZ_natural\LZ_natural_211.jpg,    m,1,11,0,4,4,4,0,0,0,0,,,,,,,,,,,,,,,,,,,,,,,,,,,,,,,,,,,,,,,,,,,49.056022099917755,None,50.147073499974795,51.14941850001924,51.14294469996821,52.14256629999727,52.14256629999727,53.1424370999448,53.1424370999448,None,,,,,,,,,,,,,,,,,,,,,,,,,,,,,,,,,,,,,,,,,,,,,,,,,,,,,,,,,,,,99,001,2020_Dec_09_1512,new_STLI_practise,2020.2.10,143.78496670293111,
LZ_natural\LZ_natural_227.jpg,LZ_natural\LZ_natural_118.jpg,LZ_natural\LZ_natural_211.jpg,LZ_natural\LZ_natural_7.jpg,     ,     ,     ,     ,     ,     ,     ,     ,     ,     ,     ,     ,1,LZ_natural\LZ_natural_27.jpg,LZ_natural\LZ_natural_165.jpg,LZ_natural\LZ_natural_10.jpg,LZ_natural\LZ_natural_211.jpg,    m,1,11,0,4,4,4,,,,,,,,,,,,,,,,,,,,,,,,,,,,,,,,,,,,,,,,,,,,,,,,,,,,,,,,,54.13878429995384,55.149675099994056,55.138213100028224,None,55.138213100028224,None,55.138213100028224,None,55.138213100028224,None,m,0,2.2148239000234753,1.0073207400273532,None,,,,,,,,,,,,,,,,,,,,,,,,,,,,,,,,,,,,,,,,,,,,,99,001,2020_Dec_09_1512,new_STLI_practise,2020.2.10,143.78496670293111,
LZ_natural\LZ_natural_79.jpg,LZ_natural\LZ_natural_175.jpg,LZ_natural\LZ_natural_121.jpg,LZ_natural\LZ_natural_25.jpg,LZ_natural\LZ_natural_84.jpg,LZ_natural\LZ_natural_239.jpg,LZ_natural\LZ_natural_207.jpg,LZ_natural\LZ_natural_220.jpg,     ,     ,     ,     ,     ,     ,     ,     ,2,LZ_natural\LZ_natural_1.jpg,LZ_natural\LZ_natural_37.jpg,LZ_natural\LZ_natural_184.jpg,LZ_natural\LZ_natural_207.jpg,    m,1,12,0,5,5,5,,,,,0,0,0,0,,,,,,,,,,,,,,,,,,,,,,,,,,,,,,,,,,,,,,,57.37362099997699,None,,,,,,,,,,,,,,,,,,,,,,,,58.69438080000691,59.148979499936104,59.184961699997075,59.637987899943255,59.68514259997755,60.135099899955094,60.18460459995549,60.636151899932884,60.684883999987505,61.13543040002696,61.185528600006364,61.63823469995987,61.68453209998552,62.134993999963626,62.18462469999213,None,,,,,,,,,,,,,,,,,,,,,,,,,,,,,99,001,2020_Dec_09_1512,new_STLI_practise,2020.2.10,143.78496670293111,
LZ_natural\LZ_natural_79.jpg,LZ_natural\LZ_natural_175.jpg,LZ_natural\LZ_natural_121.jpg,LZ_natural\LZ_natural_25.jpg,LZ_natural\LZ_natural_84.jpg,LZ_natural\LZ_natural_239.jpg,LZ_natural\LZ_natural_207.jpg,LZ_natural\LZ_natural_220.jpg,     ,     ,     ,     ,     ,     ,     ,     ,2,LZ_natural\LZ_natural_1.jpg,LZ_natural\LZ_natural_37.jpg,LZ_natural\LZ_natural_184.jpg,LZ_natural\LZ_natural_207.jpg,    m,1,12,0,5,5,5,,,,,,,,,,,,,,,,,,,,,,,,,,,,,,,,,,,,,,,,,,,,,,,,,,,,,,,,,62.43121810001321,63.440996299963444,63.42960639996454,None,63.42960639996454,None,63.42960639996454,None,63.42960639996454,None,m,0,0.8932172999484465,1.0070364198181778,None,,,,,,,,,,,,,,,,,,,,,,,,,,,,,,,,,,,,,,,,,,,,,99,001,2020_Dec_09_1512,new_STLI_practise,2020.2.10,143.78496670293111,
LZ_natural\LZ_natural_144.jpg,LZ_natural\LZ_natural_203.jpg,LZ_natural\LZ_natural_109.jpg,LZ_natural\LZ_natural_60.jpg,LZ_natural\LZ_natural_147.jpg,LZ_natural\LZ_natural_19.jpg,LZ_natural\LZ_natural_149.jpg,LZ_natural\LZ_natural_196.jpg,     ,     ,     ,     ,     ,     ,     ,     ,2,LZ_natural\LZ_natural_233.jpg,LZ_natural\LZ_natural_109.jpg,LZ_natural\LZ_natural_138.jpg,LZ_natural\LZ_natural_160.jpg,    z,1,12,0,6,6,6,,,,,0,0,0,0,,,,,,,,,,,,,,,,,,,,,,,,,,,,,,,,,,,,,,,64.35329020000063,None,,,,,,,,,,,,,,,,,,,,,,,,65.59433330001775,66.04457020002883,66.08713949995581,66.5400321999332,66.58755049994215,67.03781299991533,67.08721789997071,67.54016719991341,67.5871076999465,68.04057910002302,68.08713939995505,68.54002019995824,68.5872371000005,69.0407379999524,69.08712669997476,None,,,,,,,,,,,,,,,,,,,,,,,,,,,,,99,001,2020_Dec_09_1512,new_STLI_practise,2020.2.10,143.78496670293111,
LZ_natural\LZ_natural_144.jpg,LZ_natural\LZ_natural_203.jpg,LZ_natural\LZ_natural_109.jpg,LZ_natural\LZ_natural_60.jpg,LZ_natural\LZ_natural_147.jpg,LZ_natural\LZ_natural_19.jpg,LZ_natural\LZ_natural_149.jpg,LZ_natural\LZ_natural_196.jpg,     ,     ,     ,     ,     ,     ,     ,     ,2,LZ_natural\LZ_natural_233.jpg,LZ_natural\LZ_natural_109.jpg,LZ_natural\LZ_natural_138.jpg,LZ_natural\LZ_natural_160.jpg,    z,1,12,0,6,6,6,,,,,,,,,,,,,,,,,,,,,,,,,,,,,,,,,,,,,,,,,,,,,,,,,,,,,,,,,69.40973850002047,70.419885899988,70.40854480001144,None,70.40854480001144,None,70.40854480001144,None,70.40854480001144,None,z,0,0.435834200005047,1.0087800198234618,None,,,,,,,,,,,,,,,,,,,,,,,,,,,,,,,,,,,,,,,,,,,,,99,001,2020_Dec_09_1512,new_STLI_practise,2020.2.10,143.78496670293111,
LZ_natural\LZ_natural_20.jpg,LZ_natural\LZ_natural_81.jpg,LZ_natural\LZ_natural_183.jpg,LZ_natural\LZ_natural_206.jpg,LZ_natural\LZ_natural_14.jpg,LZ_natural\LZ_natural_85.jpg,LZ_natural\LZ_natural_26.jpg,LZ_natural\LZ_natural_37.jpg,     ,     ,     ,     ,     ,     ,     ,     ,2,LZ_natural\LZ_natural_178.jpg,LZ_natural\LZ_natural_73.jpg,LZ_natural\LZ_natural_108.jpg,LZ_natural\LZ_natural_81.jpg,    m,1,12,0,7,7,7,,,,,0,0,0,0,,,,,,,,,,,,,,,,,,,,,,,,,,,,,,,,,,,,,,,70.86886119993869,None,,,,,,,,,,,,,,,,,,,,,,,,72.00837409996893,72.46143869997468,72.50378159992397,72.95448419998866,73.00381399993785,73.45499649993144,73.50393939996138,73.95458739995956,74.00374139996711,74.45458869996946,74.5038821999915,74.95452219992876,75.00359490001574,75.45458309992682,75.50372959999368,None,,,,,,,,,,,,,,,,,,,,,,,,,,,,,99,001,2020_Dec_09_1512,new_STLI_practise,2020.2.10,143.78496670293111,
LZ_natural\LZ_natural_20.jpg,LZ_natural\LZ_natural_81.jpg,LZ_natural\LZ_natural_183.jpg,LZ_natural\LZ_natural_206.jpg,LZ_natural\LZ_natural_14.jpg,LZ_natural\LZ_natural_85.jpg,LZ_natural\LZ_natural_26.jpg,LZ_natural\LZ_natural_37.jpg,     ,     ,     ,     ,     ,     ,     ,     ,2,LZ_natural\LZ_natural_178.jpg,LZ_natural\LZ_natural_73.jpg,LZ_natural\LZ_natural_108.jpg,LZ_natural\LZ_natural_81.jpg,    m,1,12,0,7,7,7,,,,,,,,,,,,,,,,,,,,,,,,,,,,,,,,,,,,,,,,,,,,,,,,,,,,,,,,,75.89114099997096,76.89913529995829,76.88753339997493,None,76.88753339997493,None,76.88753339997493,None,76.88753339997493,None,m,0,2.2492987000150606,1.0028108999831602,None,,,,,,,,,,,,,,,,,,,,,,,,,,,,,,,,,,,,,,,,,,,,,99,001,2020_Dec_09_1512,new_STLI_practise,2020.2.10,143.78496670293111,
LZ_natural\LZ_natural_137.jpg,LZ_natural\LZ_natural_190.jpg,LZ_natural\LZ_natural_44.jpg,LZ_natural\LZ_natural_236.jpg,LZ_natural\LZ_natural_53.jpg,LZ_natural\LZ_natural_240.jpg,LZ_natural\LZ_natural_141.jpg,LZ_natural\LZ_natural_83.jpg,     ,     ,     ,     ,     ,     ,     ,     ,2,LZ_natural\LZ_natural_91.jpg,LZ_natural\LZ_natural_137.jpg,LZ_natural\LZ_natural_77.jpg,LZ_natural\LZ_natural_28.jpg,    z,1,12,0,8,8,8,,,,,0,0,0,0,,,,,,,,,,,,,,,,,,,,,,,,,,,,,,,,,,,,,,,79.16551820002496,None,,,,,,,,,,,,,,,,,,,,,,,,80.41268780000973,80.86449690000154,80.9070183999138,81.3607340999879,81.40676779998466,81.85875659994781,81.90665509994142,82.35771799995564,82.40673849999439,82.85956549993716,82.90688979998231,83.35799319995567,83.40701429999899,83.85842249996495,83.90679509995971,None,,,,,,,,,,,,,,,,,,,,,,,,,,,,,99,001,2020_Dec_09_1512,new_STLI_practise,2020.2.10,143.78496670293111,
LZ_natural\LZ_natural_137.jpg,LZ_natural\LZ_natural_190.jpg,LZ_natural\LZ_natural_44.jpg,LZ_natural\LZ_natural_236.jpg,LZ_natural\LZ_natural_53.jpg,LZ_natural\LZ_natural_240.jpg,LZ_natural\LZ_natural_141.jpg,LZ_natural\LZ_natural_83.jpg,     ,     ,     ,     ,     ,     ,     ,     ,2,LZ_natural\LZ_natural_91.jpg,LZ_natural\LZ_natural_137.jpg,LZ_natural\LZ_natural_77.jpg,LZ_natural\LZ_natural_28.jpg,    z,1,12,0,8,8,8,,,,,,,,,,,,,,,,,,,,,,,,,,,,,,,,,,,,,,,,,,,,,,,,,,,,,,,,,84.21854069991969,85.23140889999922,85.21521749999374,None,85.21521749999374,None,85.21521749999374,None,85.21521749999374,None,a,0,1.7204418999608606,1.0045553498202935,None,,,,,,,,,,,,,,,,,,,,,,,,,,,,,,,,,,,,,,,,,,,,,99,001,2020_Dec_09_1512,new_STLI_practise,2020.2.10,143.78496670293111,
LZ_natural\LZ_natural_164.jpg,LZ_natural\LZ_natural_13.jpg,LZ_natural\LZ_natural_92.jpg,LZ_natural\LZ_natural_231.jpg,LZ_natural\LZ_natural_169.jpg,LZ_natural\LZ_natural_139.jpg,LZ_natural\LZ_natural_1.jpg,LZ_natural\LZ_natural_199.jpg,     ,     ,     ,     ,     ,     ,     ,     ,2,LZ_natural\LZ_natural_210.jpg,LZ_natural\LZ_natural_66.jpg,LZ_natural\LZ_natural_92.jpg,LZ_natural\LZ_natural_105.jpg,    k,1,12,0,9,9,9,,,,,0,0,0,0,,,,,,,,,,,,,,,,,,,,,,,,,,,,,,,,,,,,,,,86.963754999917,None,,,,,,,,,,,,,,,,,,,,,,,,88.20923589996528,88.66458839992993,88.69873930001631,89.14967179996893,89.19850369996857,89.64941640000325,89.69851309992373,90.1493499999633,90.1985317999497,90.64949949993752,90.6984409999568,91.1494834999321,91.19854819995817,91.64937140000984,91.69859229994472,None,,,,,,,,,,,,,,,,,,,,,,,,,,,,,99,001,2020_Dec_09_1512,new_STLI_practise,2020.2.10,143.78496670293111,
LZ_natural\LZ_natural_164.jpg,LZ_natural\LZ_natural_13.jpg,LZ_natural\LZ_natural_92.jpg,LZ_natural\LZ_natural_231.jpg,LZ_natural\LZ_natural_169.jpg,LZ_natural\LZ_natural_139.jpg,LZ_natural\LZ_natural_1.jpg,LZ_natural\LZ_natural_199.jpg,     ,     ,     ,     ,     ,     ,     ,     ,2,LZ_natural\LZ_natural_210.jpg,LZ_natural\LZ_natural_66.jpg,LZ_natural\LZ_natural_92.jpg,LZ_natural\LZ_natural_105.jpg,    k,1,12,0,9,9,9,,,,,,,,,,,,,,,,,,,,,,,,,,,,,,,,,,,,,,,,,,,,,,,,,,,,,,,,,92.026005599997,93.02914489991963,93.0193108000094,None,93.0193108000094,None,93.0193108000094,None,93.0193108000094,None,k,0,1.188002199982293,1.0057582898298278,None,,,,,,,,,,,,,,,,,,,,,,,,,,,,,,,,,,,,,,,,,,,,,99,001,2020_Dec_09_1512,new_STLI_practise,2020.2.10,143.78496670293111,
LZ_natural\LZ_natural_16.jpg,LZ_natural\LZ_natural_197.jpg,LZ_natural\LZ_natural_69.jpg,LZ_natural\LZ_natural_230.jpg,LZ_natural\LZ_natural_63.jpg,LZ_natural\LZ_natural_110.jpg,LZ_natural\LZ_natural_30.jpg,LZ_natural\LZ_natural_209.jpg,LZ_natural\LZ_natural_64.jpg,LZ_natural\LZ_natural_132.jpg,LZ_natural\LZ_natural_77.jpg,LZ_natural\LZ_natural_106.jpg,     ,     ,     ,     ,3,LZ_natural\LZ_natural_223.jpg,LZ_natural\LZ_natural_164.jpg,LZ_natural\LZ_natural_216.jpg,LZ_natural\LZ_natural_197.jpg,    m,1,13,0,10,10,10,,,,,,,,,0,0,0,0,,,,,,,,,,,,,,,,,,,,,,,,,,,,,,,,,,,94.22242989996448,None,,,,,,,,,,,,,,,,,,,,,,,,,,,,,,,,,,,,,,,,95.62746959994547,95.9271402999293,95.97045869997237,96.27440489991568,96.31712529994547,96.62197079998441,96.61565930000506,96.92223659995943,96.97025909996592,97.2747613999527,97.31717479997315,97.62366979999933,97.61707839998417,97.92013570002746,97.9711646999931,98.27454969997052,98.31687510001939,98.6171848999802,98.6171848999802,98.92050160001963,98.96995619998779,None,None,None,,,,,99,001,2020_Dec_09_1512,new_STLI_practise,2020.2.10,143.78496670293111,
LZ_natural\LZ_natural_16.jpg,LZ_natural\LZ_natural_197.jpg,LZ_natural\LZ_natural_69.jpg,LZ_natural\LZ_natural_230.jpg,LZ_natural\LZ_natural_63.jpg,LZ_natural\LZ_natural_110.jpg,LZ_natural\LZ_natural_30.jpg,LZ_natural\LZ_natural_209.jpg,LZ_natural\LZ_natural_64.jpg,LZ_natural\LZ_natural_132.jpg,LZ_natural\LZ_natural_77.jpg,LZ_natural\LZ_natural_106.jpg,     ,     ,     ,     ,3,LZ_natural\LZ_natural_223.jpg,LZ_natural\LZ_natural_164.jpg,LZ_natural\LZ_natural_216.jpg,LZ_natural\LZ_natural_197.jpg,    m,1,13,0,10,10,10,,,,,,,,,,,,,,,,,,,,,,,,,,,,,,,,,,,,,,,,,,,,,,,,,,,,,,,,,99.31539509992581,100.32486990001053,100.31188799999654,None,100.31188799999654,None,100.31188799999654,None,100.31188799999654,None,z,0,2.547631800058298,1.0036454098299146,None,,,,,,,,,,,,,,,,,,,,,,,,,,,,,,,,,,,,,,,,,,,,,99,001,2020_Dec_09_1512,new_STLI_practise,2020.2.10,143.78496670293111,
LZ_natural\LZ_natural_143.jpg,LZ_natural\LZ_natural_93.jpg,LZ_natural\LZ_natural_125.jpg,LZ_natural\LZ_natural_131.jpg,LZ_natural\LZ_natural_221.jpg,LZ_natural\LZ_natural_156.jpg,LZ_natural\LZ_natural_237.jpg,LZ_natural\LZ_natural_70.jpg,LZ_natural\LZ_natural_94.jpg,LZ_natural\LZ_natural_129.jpg,LZ_natural\LZ_natural_228.jpg,LZ_natural\LZ_natural_82.jpg,     ,     ,     ,     ,3,LZ_natural\LZ_natural_125.jpg,LZ_natural\LZ_natural_25.jpg,LZ_natural\LZ_natural_45.jpg,LZ_natural\LZ_natural_22.jpg,    a,1,13,0,11,11,11,,,,,,,,,0,0,0,0,,,,,,,,,,,,,,,,,,,,,,,,,,,,,,,,,,,102.88278829993214,None,,,,,,,,,,,,,,,,,,,,,,,,,,,,,,,,,,,,,,,,104.09850939991884,104.39930980000645,104.44152240001131,104.73983510001563,104.79589660000056,105.10336189996451,105.09495699999388,105.39954399992712,105.44174499996006,105.74190759996418,105.79600189998746,106.10338530002628,106.0949430000037,106.39954309992027,106.44176289997995,106.74682589992881,106.79605909995735,107.09687659994233,107.09058119996917,107.39303819998167,107.44173179997597,107.74071659997571,107.79841249994934,None,,,,,99,001,2020_Dec_09_1512,new_STLI_practise,2020.2.10,143.78496670293111,
LZ_natural\LZ_natural_143.jpg,LZ_natural\LZ_natural_93.jpg,LZ_natural\LZ_natural_125.jpg,LZ_natural\LZ_natural_131.jpg,LZ_natural\LZ_natural_221.jpg,LZ_natural\LZ_natural_156.jpg,LZ_natural\LZ_natural_237.jpg,LZ_natural\LZ_natural_70.jpg,LZ_natural\LZ_natural_94.jpg,LZ_natural\LZ_natural_129.jpg,LZ_natural\LZ_natural_228.jpg,LZ_natural\LZ_natural_82.jpg,     ,     ,     ,     ,3,LZ_natural\LZ_natural_125.jpg,LZ_natural\LZ_natural_25.jpg,LZ_natural\LZ_natural_45.jpg,LZ_natural\LZ_natural_22.jpg,    a,1,13,0,11,11,11,,,,,,,,,,,,,,,,,,,,,,,,,,,,,,,,,,,,,,,,,,,,,,,,,,,,,,,,,107.96262789994944,108.97081560001243,108.95864780002739,None,108.95864780002739,None,108.95864780002739,None,108.95864780002739,None,a,0,1.435077500063926,1.0083724398864433,None,,,,,,,,,,,,,,,,,,,,,,,,,,,,,,,,,,,,,,,,,,,,,99,001,2020_Dec_09_1512,new_STLI_practise,2020.2.10,143.78496670293111,
LZ_natural\LZ_natural_39.jpg,LZ_natural\LZ_natural_43.jpg,LZ_natural\LZ_natural_163.jpg,LZ_natural\LZ_natural_62.jpg,LZ_natural\LZ_natural_49.jpg,LZ_natural\LZ_natural_238.jpg,LZ_natural\LZ_natural_104.jpg,LZ_natural\LZ_natural_218.jpg,LZ_natural\LZ_natural_233.jpg,LZ_natural\LZ_natural_193.jpg,LZ_natural\LZ_natural_102.jpg,LZ_natural\LZ_natural_112.jpg,     ,     ,     ,     ,3,LZ_natural\LZ_natural_84.jpg,LZ_natural\LZ_natural_19.jpg,LZ_natural\LZ_natural_221.jpg,LZ_natural\LZ_natural_218.jpg,    m,1,13,0,12,12,12,,,,,,,,,0,0,0,0,,,,,,,,,,,,,,,,,,,,,,,,,,,,,,,,,,,110.4211409999989,None,,,,,,,,,,,,,,,,,,,,,,,,,,,,,,,,,,,,,,,,111.73221029993147,112.03534409997519,112.07380879996344,112.37884199991822,112.42819150001742,112.73515760002192,112.7294530000072,113.03154589992482,113.0737128999317,113.37891289999243,113.4277278999798,113.73382630001288,113.72697810002137,114.02522810001392,114.07406140002422,114.37884299992584,114.42801319994032,114.73615080001764,114.73043549992144,115.0279339000117,115.07374729996081,115.37200129998382,None,None,,,,,99,001,2020_Dec_09_1512,new_STLI_practise,2020.2.10,143.78496670293111,
LZ_natural\LZ_natural_39.jpg,LZ_natural\LZ_natural_43.jpg,LZ_natural\LZ_natural_163.jpg,LZ_natural\LZ_natural_62.jpg,LZ_natural\LZ_natural_49.jpg,LZ_natural\LZ_natural_238.jpg,LZ_natural\LZ_natural_104.jpg,LZ_natural\LZ_natural_218.jpg,LZ_natural\LZ_natural_233.jpg,LZ_natural\LZ_natural_193.jpg,LZ_natural\LZ_natural_102.jpg,LZ_natural\LZ_natural_112.jpg,     ,     ,     ,     ,3,LZ_natural\LZ_natural_84.jpg,LZ_natural\LZ_natural_19.jpg,LZ_natural\LZ_natural_221.jpg,LZ_natural\LZ_natural_218.jpg,    m,1,13,0,12,12,12,,,,,,,,,,,,,,,,,,,,,,,,,,,,,,,,,,,,,,,,,,,,,,,,,,,,,,,,,115.46772209997289,116.48452119994909,116.45753689995036,None,116.45753689995036,None,116.45753689995036,None,116.45753689995036,None,m,0,1.4909842999186367,1.002582059823908,None,,,,,,,,,,,,,,,,,,,,,,,,,,,,,,,,,,,,,,,,,,,,,99,001,2020_Dec_09_1512,new_STLI_practise,2020.2.10,143.78496670293111,
LZ_natural\LZ_natural_213.jpg,LZ_natural\LZ_natural_140.jpg,LZ_natural\LZ_natural_6.jpg,LZ_natural\LZ_natural_4.jpg,LZ_natural\LZ_natural_51.jpg,LZ_natural\LZ_natural_122.jpg,LZ_natural\LZ_natural_48.jpg,LZ_natural\LZ_natural_21.jpg,LZ_natural\LZ_natural_159.jpg,LZ_natural\LZ_natural_100.jpg,LZ_natural\LZ_natural_135.jpg,LZ_natural\LZ_natural_31.jpg,     ,     ,     ,     ,3,LZ_natural\LZ_natural_204.jpg,LZ_natural\LZ_natural_122.jpg,LZ_natural\LZ_natural_27.jpg,LZ_natural\LZ_natural_167.jpg,    z,1,13,0,13,13,13,,,,,,,,,0,0,0,0,,,,,,,,,,,,,,,,,,,,,,,,,,,,,,,,,,,117.97018840000965,None,,,,,,,,,,,,,,,,,,,,,,,,,,,,,,,,,,,,,,,,119.35241359996144,119.65701800002716,119.69196500000544,119.99477829993702,120.04173549998086,120.3446077000117,120.33817060000729,120.64268019993324,120.69185920001473,120.99431249999907,121.03954969998449,121.34481659997255,121.33827619999647,121.64270760002546,121.69197859999258,121.99287939991336,122.03916399995796,122.34494420001283,122.33818770002108,122.63754359993618,122.69172439991962,None,None,None,,,,,99,001,2020_Dec_09_1512,new_STLI_practise,2020.2.10,143.78496670293111,
LZ_natural\LZ_natural_213.jpg,LZ_natural\LZ_natural_140.jpg,LZ_natural\LZ_natural_6.jpg,LZ_natural\LZ_natural_4.jpg,LZ_natural\LZ_natural_51.jpg,LZ_natural\LZ_natural_122.jpg,LZ_natural\LZ_natural_48.jpg,LZ_natural\LZ_natural_21.jpg,LZ_natural\LZ_natural_159.jpg,LZ_natural\LZ_natural_100.jpg,LZ_natural\LZ_natural_135.jpg,LZ_natural\LZ_natural_31.jpg,     ,     ,     ,     ,3,LZ_natural\LZ_natural_204.jpg,LZ_natural\LZ_natural_122.jpg,LZ_natural\LZ_natural_27.jpg,LZ_natural\LZ_natural_167.jpg,    z,1,13,0,13,13,13,,,,,,,,,,,,,,,,,,,,,,,,,,,,,,,,,,,,,,,,,,,,,,,,,,,,,,,,,123.03647960000671,124.0448972999584,124.03373959998135,None,124.03373959998135,None,124.03373959998135,None,124.03373959998135,None,a,0,2.0489147000480443,1.005118729895912,None,,,,,,,,,,,,,,,,,,,,,,,,,,,,,,,,,,,,,,,,,,,,,99,001,2020_Dec_09_1512,new_STLI_practise,2020.2.10,143.78496670293111,
LZ_natural\LZ_natural_142.jpg,LZ_natural\LZ_natural_99.jpg,LZ_natural\LZ_natural_34.jpg,LZ_natural\LZ_natural_161.jpg,LZ_natural\LZ_natural_58.jpg,LZ_natural\LZ_natural_40.jpg,LZ_natural\LZ_natural_57.jpg,LZ_natural\LZ_natural_27.jpg,LZ_natural\LZ_natural_136.jpg,LZ_natural\LZ_natural_224.jpg,LZ_natural\LZ_natural_95.jpg,LZ_natural\LZ_natural_189.jpg,     ,     ,     ,     ,3,LZ_natural\LZ_natural_146.jpg,LZ_natural\LZ_natural_142.jpg,LZ_natural\LZ_natural_117.jpg,LZ_natural\LZ_natural_220.jpg,    z,1,13,0,14,14,14,,,,,,,,,0,0,0,0,,,,,,,,,,,,,,,,,,,,,,,,,,,,,,,,,,,126.10887539992109,None,,,,,,,,,,,,,,,,,,,,,,,,,,,,,,,,,,,,,,,,127.44078279996756,127.7420659000054,127.7903612999944,128.09419410000555,128.13642160000745,128.44195739994757,128.43562579993159,128.7342106999131,128.78926769993268,129.0943046999164,129.1367642999394,129.4419078999199,129.4354777999688,129.73444759997074,129.78992699994706,130.09434439998586,130.13691799994558,130.44236089999322,130.43562130001374,130.73447869997472,130.79009459994268,131.09427090000827,None,None,,,,,99,001,2020_Dec_09_1512,new_STLI_practise,2020.2.10,143.78496670293111,
LZ_natural\LZ_natural_142.jpg,LZ_natural\LZ_natural_99.jpg,LZ_natural\LZ_natural_34.jpg,LZ_natural\LZ_natural_161.jpg,LZ_natural\LZ_natural_58.jpg,LZ_natural\LZ_natural_40.jpg,LZ_natural\LZ_natural_57.jpg,LZ_natural\LZ_natural_27.jpg,LZ_natural\LZ_natural_136.jpg,LZ_natural\LZ_natural_224.jpg,LZ_natural\LZ_natural_95.jpg,LZ_natural\LZ_natural_189.jpg,     ,     ,     ,     ,3,LZ_natural\LZ_natural_146.jpg,LZ_natural\LZ_natural_142.jpg,LZ_natural\LZ_natural_117.jpg,LZ_natural\LZ_natural_220.jpg,    z,1,13,0,14,14,14,,,,,,,,,,,,,,,,,,,,,,,,,,,,,,,,,,,,,,,,,,,,,,,,,,,,,,,,,131.1943832000252,132.19723629998043,132.18652629991993,None,132.18652629991993,None,132.18652629991993,None,132.18652629991993,None,m,0,1.016076699947007,1.0016390099190176,None,,,,,,,,,,,,,,,,,,,,,,,,,,,,,,,,,,,,,,,,,,,,,99,001,2020_Dec_09_1512,new_STLI_practise,2020.2.10,143.78496670293111,
LZ_scrambled\LZ_scrambled_228.jpg,LZ_scrambled\LZ_scrambled_30.jpg,LZ_scrambled\LZ_scrambled_61.jpg,LZ_scrambled\LZ_scrambled_211.jpg,     ,     ,     ,     ,     ,     ,     ,     ,     ,     ,     ,     ,1,LZ_scrambled\LZ_scrambled_160.jpg,LZ_scrambled\LZ_scrambled_30.jpg,LZ_scrambled\LZ_scrambled_185.jpg,LZ_scrambled\LZ_scrambled_87.jpg,    z,2,21,,,,,,,,,,,,,,,,,0,0,0,0,0,0,0,0,,,,,,,,,,,,,,,,,,,,,,,,,,,134.58210439991672,None,135.78818609996233,136.78929719992448,136.78332879999653,137.78249559993856,137.78249559993856,138.78266349993646,138.78266349993646,None,,,,,,,,,,,,,,,,,,,,,,,,,,,,,,,,,,,,,,,,,,,,,,,,,,,,,,,,133.23105049994774,None,,,99,001,2020_Dec_09_1512,new_STLI_practise,2020.2.10,143.78496670293111,
LZ_scrambled\LZ_scrambled_228.jpg,LZ_scrambled\LZ_scrambled_30.jpg,LZ_scrambled\LZ_scrambled_61.jpg,LZ_scrambled\LZ_scrambled_211.jpg,     ,     ,     ,     ,     ,     ,     ,     ,     ,     ,     ,     ,1,LZ_scrambled\LZ_scrambled_160.jpg,LZ_scrambled\LZ_scrambled_30.jpg,LZ_scrambled\LZ_scrambled_185.jpg,LZ_scrambled\LZ_scrambled_87.jpg,    z,2,21,,,,,,,,,,,,,,,,,0,0,0,0,,,,,,,,,,,,,,,,,,,,,,,,,,,,,,,,,,,,,,,,,139.74867619993165,140.75363970000762,140.74290039995685,None,140.74290039995685,None,140.74290039995685,None,140.74290039995685,None,z,0,1.1420397999463603,1.0087474199244753,None,,,,,,,,,,,,,,,,,,,,,,,,,,,,,,,,,,,,,,,,,,,,,99,001,2020_Dec_09_1512,new_STLI_practise,2020.2.10,143.78496670293111,
LZ_scrambled\LZ_scrambled_165.jpg,LZ_scrambled\LZ_scrambled_22.jpg,LZ_scrambled\LZ_scrambled_6.jpg,LZ_scrambled\LZ_scrambled_231.jpg,     ,     ,     ,     ,     ,     ,     ,     ,     ,     ,     ,     ,1,LZ_scrambled\LZ_scrambled_88.jpg,LZ_scrambled\LZ_scrambled_6.jpg,LZ_scrambled\LZ_scrambled_222.jpg,LZ_scrambled\LZ_scrambled_118.jpg,    z,2,21,,,,,,,,,,,,,,,,,0,1,1,1,0,0,0,0,,,,,,,,,,,,,,,,,,,,,,,,,,,141.9105251999572,None,143.15230149996933,144.15777669998351,144.14423249999527,145.14392569998745,145.14392569998745,146.14384079992305,146.14384079992305,None,,,,,,,,,,,,,,,,,,,,,,,,,,,,,,,,,,,,,,,,,,,,,,,,,,,,,,,,,,,,99,001,2020_Dec_09_1512,new_STLI_practise,2020.2.10,143.78496670293111,
LZ_scrambled\LZ_scrambled_165.jpg,LZ_scrambled\LZ_scrambled_22.jpg,LZ_scrambled\LZ_scrambled_6.jpg,LZ_scrambled\LZ_scrambled_231.jpg,     ,     ,     ,     ,     ,     ,     ,     ,     ,     ,     ,     ,1,LZ_scrambled\LZ_scrambled_88.jpg,LZ_scrambled\LZ_scrambled_6.jpg,LZ_scrambled\LZ_scrambled_222.jpg,LZ_scrambled\LZ_scrambled_118.jpg,    z,2,21,,,,,,,,,,,,,,,,,0,1,1,1,,,,,,,,,,,,,,,,,,,,,,,,,,,,,,,,,,,,,,,,,147.13978790002875,148.1425713999197,148.1322442999808,None,148.1322442999808,None,148.1322442999808,None,148.1322442999808,None,m,0,0.6493105998961255,1.0033323096577078,None,,,,,,,,,,,,,,,,,,,,,,,,,,,,,,,,,,,,,,,,,,,,,99,001,2020_Dec_09_1512,new_STLI_practise,2020.2.10,143.78496670293111,
LZ_scrambled\LZ_scrambled_116.jpg,LZ_scrambled\LZ_scrambled_207.jpg,LZ_scrambled\LZ_scrambled_159.jpg,LZ_scrambled\LZ_scrambled_83.jpg,     ,     ,     ,     ,     ,     ,     ,     ,     ,     ,     ,     ,1,LZ_scrambled\LZ_scrambled_236.jpg,LZ_scrambled\LZ_scrambled_207.jpg,LZ_scrambled\LZ_scrambled_89.jpg,LZ_scrambled\LZ_scrambled_75.jpg,    z,2,21,,,,,,,,,,,,,,,,,0,2,2,2,0,0,0,0,,,,,,,,,,,,,,,,,,,,,,,,,,,148.79620450001676,None,150.02404709998518,151.02605719992425,151.01280309993308,152.01838569995016,152.01244299998507,153.01671390002593,153.01671390002593,None,,,,,,,,,,,,,,,,,,,,,,,,,,,,,,,,,,,,,,,,,,,,,,,,,,,,,,,,,,,,99,001,2020_Dec_09_1512,new_STLI_practise,2020.2.10,143.78496670293111,
LZ_scrambled\LZ_scrambled_116.jpg,LZ_scrambled\LZ_scrambled_207.jpg,LZ_scrambled\LZ_scrambled_159.jpg,LZ_scrambled\LZ_scrambled_83.jpg,     ,     ,     ,     ,     ,     ,     ,     ,     ,     ,     ,     ,1,LZ_scrambled\LZ_scrambled_236.jpg,LZ_scrambled\LZ_scrambled_207.jpg,LZ_scrambled\LZ_scrambled_89.jpg,LZ_scrambled\LZ_scrambled_75.jpg,    z,2,21,,,,,,,,,,,,,,,,,0,2,2,2,,,,,,,,,,,,,,,,,,,,,,,,,,,,,,,,,,,,,,,,,153.9670719000278,154.97616889991332,154.96527779998723,None,154.96527779998723,None,154.96527779998723,None,154.96527779998723,None,z,0,0.6721280999481678,1.007591079804115,None,,,,,,,,,,,,,,,,,,,,,,,,,,,,,,,,,,,,,,,,,,,,,99,001,2020_Dec_09_1512,new_STLI_practise,2020.2.10,143.78496670293111,
LZ_scrambled\LZ_scrambled_18.jpg,LZ_scrambled\LZ_scrambled_117.jpg,LZ_scrambled\LZ_scrambled_162.jpg,LZ_scrambled\LZ_scrambled_198.jpg,     ,     ,     ,     ,     ,     ,     ,     ,     ,     ,     ,     ,1,LZ_scrambled\LZ_scrambled_103.jpg,LZ_scrambled\LZ_scrambled_162.jpg,LZ_scrambled\LZ_scrambled_61.jpg,LZ_scrambled\LZ_scrambled_163.jpg,    z,2,21,,,,,,,,,,,,,,,,,0,3,3,3,0,0,0,0,,,,,,,,,,,,,,,,,,,,,,,,,,,155.65552899998147,None,156.8224642999703,157.82523379998747,157.8179146000184,158.8174104000209,158.8174104000209,159.81732559995726,159.81732559995726,None,,,,,,,,,,,,,,,,,,,,,,,,,,,,,,,,,,,,,,,,,,,,,,,,,,,,,,,,,,,,99,001,2020_Dec_09_1512,new_STLI_practise,2020.2.10,143.78496670293111,
LZ_scrambled\LZ_scrambled_18.jpg,LZ_scrambled\LZ_scrambled_117.jpg,LZ_scrambled\LZ_scrambled_162.jpg,LZ_scrambled\LZ_scrambled_198.jpg,     ,     ,     ,     ,     ,     ,     ,     ,     ,     ,     ,     ,1,LZ_scrambled\LZ_scrambled_103.jpg,LZ_scrambled\LZ_scrambled_162.jpg,LZ_scrambled\LZ_scrambled_61.jpg,LZ_scrambled\LZ_scrambled_163.jpg,    z,2,21,,,,,,,,,,,,,,,,,0,3,3,3,,,,,,,,,,,,,,,,,,,,,,,,,,,,,,,,,,,,,,,,,160.75797639996745,161.76798839995172,161.75697220000438,None,161.75697220000438,None,161.75697220000438,None,161.75697220000438,None,z,0,1.5239135000156239,1.006661749794148,None,,,,,,,,,,,,,,,,,,,,,,,,,,,,,,,,,,,,,,,,,,,,,99,001,2020_Dec_09_1512,new_STLI_practise,2020.2.10,143.78496670293111,
LZ_scrambled\LZ_scrambled_7.jpg,LZ_scrambled\LZ_scrambled_154.jpg,LZ_scrambled\LZ_scrambled_62.jpg,LZ_scrambled\LZ_scrambled_95.jpg,     ,     ,     ,     ,     ,     ,     ,     ,     ,     ,     ,     ,1,LZ_scrambled\LZ_scrambled_227.jpg,LZ_scrambled\LZ_scrambled_7.jpg,LZ_scrambled\LZ_scrambled_3.jpg,LZ_scrambled\LZ_scrambled_122.jpg,    z,2,21,,,,,,,,,,,,,,,,,0,4,4,4,0,0,0,0,,,,,,,,,,,,,,,,,,,,,,,,,,,163.29336419992615,None,164.48480089998338,165.48842289997265,165.48179879994132,166.48714089998975,166.4809284999501,167.4875250000041,167.48122920002788,None,,,,,,,,,,,,,,,,,,,,,,,,,,,,,,,,,,,,,,,,,,,,,,,,,,,,,,,,,,,,99,001,2020_Dec_09_1512,new_STLI_practise,2020.2.10,143.78496670293111,
LZ_scrambled\LZ_scrambled_7.jpg,LZ_scrambled\LZ_scrambled_154.jpg,LZ_scrambled\LZ_scrambled_62.jpg,LZ_scrambled\LZ_scrambled_95.jpg,     ,     ,     ,     ,     ,     ,     ,     ,     ,     ,     ,     ,1,LZ_scrambled\LZ_scrambled_227.jpg,LZ_scrambled\LZ_scrambled_7.jpg,LZ_scrambled\LZ_scrambled_3.jpg,LZ_scrambled\LZ_scrambled_122.jpg,    z,2,21,,,,,,,,,,,,,,,,,0,4,4,4,,,,,,,,,,,,,,,,,,,,,,,,,,,,,,,,,,,,,,,,,168.4488122999901,169.4567631999962,169.44503389997408,None,169.44503389997408,None,169.44503389997408,None,169.44503389997408,None,k,0,1.6871647000079975,1.00311733991839,None,,,,,,,,,,,,,,,,,,,,,,,,,,,,,,,,,,,,,,,,,,,,,99,001,2020_Dec_09_1512,new_STLI_practise,2020.2.10,143.78496670293111,
LZ_scrambled\LZ_scrambled_10.jpg,LZ_scrambled\LZ_scrambled_161.jpg,LZ_scrambled\LZ_scrambled_88.jpg,LZ_scrambled\LZ_scrambled_19.jpg,LZ_scrambled\LZ_scrambled_39.jpg,LZ_scrambled\LZ_scrambled_186.jpg,LZ_scrambled\LZ_scrambled_71.jpg,LZ_scrambled\LZ_scrambled_27.jpg,     ,     ,     ,     ,     ,     ,     ,     ,2,LZ_scrambled\LZ_scrambled_211.jpg,LZ_scrambled\LZ_scrambled_71.jpg,LZ_scrambled\LZ_scrambled_138.jpg,LZ_scrambled\LZ_scrambled_22.jpg,    z,2,22,,,,,,,,,,,,,,,,,0,5,5,5,,,,,0,0,0,0,,,,,,,,,,,,,,,,,,,,,,,171.1544520999305,None,,,,,,,,,,,,,,,,,,,,,,,,172.48499209992588,172.93494259996805,172.970664100023,173.42133329994977,173.47058710001875,173.9218692999566,173.97066210000776,174.4212133999681,174.4707286999328,174.92293609993067,174.97065869998187,175.4211305999197,175.47053009993397,175.92344839998987,175.97075989993755,None,,,,,,,,,,,,,,,,,,,,,,,,,,,,,99,001,2020_Dec_09_1512,new_STLI_practise,2020.2.10,143.78496670293111,
LZ_scrambled\LZ_scrambled_10.jpg,LZ_scrambled\LZ_scrambled_161.jpg,LZ_scrambled\LZ_scrambled_88.jpg,LZ_scrambled\LZ_scrambled_19.jpg,LZ_scrambled\LZ_scrambled_39.jpg,LZ_scrambled\LZ_scrambled_186.jpg,LZ_scrambled\LZ_scrambled_71.jpg,LZ_scrambled\LZ_scrambled_27.jpg,     ,     ,     ,     ,     ,     ,     ,     ,2,LZ_scrambled\LZ_scrambled_211.jpg,LZ_scrambled\LZ_scrambled_71.jpg,LZ_scrambled\LZ_scrambled_138.jpg,LZ_scrambled\LZ_scrambled_22.jpg,    z,2,22,,,,,,,,,,,,,,,,,0,5,5,5,,,,,,,,,,,,,,,,,,,,,,,,,,,,,,,,,,,,,,,,,176.2440039999783,177.24734479992185,177.23660669999663,None,177.23660669999663,None,177.23660669999663,None,177.23660669999663,None,a,0,1.0307149000000209,1.0038115999195725,None,,,,,,,,,,,,,,,,,,,,,,,,,,,,,,,,,,,,,,,,,,,,,99,001,2020_Dec_09_1512,new_STLI_practise,2020.2.10,143.78496670293111,
LZ_scrambled\LZ_scrambled_127.jpg,LZ_scrambled\LZ_scrambled_15.jpg,LZ_scrambled\LZ_scrambled_233.jpg,LZ_scrambled\LZ_scrambled_229.jpg,LZ_scrambled\LZ_scrambled_169.jpg,LZ_scrambled\LZ_scrambled_205.jpg,LZ_scrambled\LZ_scrambled_236.jpg,LZ_scrambled\LZ_scrambled_217.jpg,     ,     ,     ,     ,     ,     ,     ,     ,2,LZ_scrambled\LZ_scrambled_228.jpg,LZ_scrambled\LZ_scrambled_169.jpg,LZ_scrambled\LZ_scrambled_205.jpg,LZ_scrambled\LZ_scrambled_51.jpg,    z,2,22,,,,,,,,,,,,,,,,,0,6,6,6,,,,,0,0,0,0,,,,,,,,,,,,,,,,,,,,,,,178.28432560001966,None,,,,,,,,,,,,,,,,,,,,,,,,179.52644990000408,179.98103319993243,180.01932019996457,180.47000879992265,180.51921159995254,180.96968460001517,181.01914549991488,181.4699933999218,181.51934250001796,181.97021759999916,182.01959349995013,182.46997729991563,182.5194240999408,182.97034130000975,183.01997070002835,None,,,,,,,,,,,,,,,,,,,,,,,,,,,,,99,001,2020_Dec_09_1512,new_STLI_practise,2020.2.10,143.78496670293111,
LZ_scrambled\LZ_scrambled_127.jpg,LZ_scrambled\LZ_scrambled_15.jpg,LZ_scrambled\LZ_scrambled_233.jpg,LZ_scrambled\LZ_scrambled_229.jpg,LZ_scrambled\LZ_scrambled_169.jpg,LZ_scrambled\LZ_scrambled_205.jpg,LZ_scrambled\LZ_scrambled_236.jpg,LZ_scrambled\LZ_scrambled_217.jpg,     ,     ,     ,     ,     ,     ,     ,     ,2,LZ_scrambled\LZ_scrambled_228.jpg,LZ_scrambled\LZ_scrambled_169.jpg,LZ_scrambled\LZ_scrambled_205.jpg,LZ_scrambled\LZ_scrambled_51.jpg,    z,2,22,,,,,,,,,,,,,,,,,0,6,6,6,,,,,,,,,,,,,,,,,,,,,,,,,,,,,,,,,,,,,,,,,183.34542879997753,184.35266560001764,184.3413414999377,None,184.3413414999377,None,184.3413414999377,None,184.3413414999377,None,a,0,1.1591571000171825,1.0029427198460326,None,,,,,,,,,,,,,,,,,,,,,,,,,,,,,,,,,,,,,,,,,,,,,99,001,2020_Dec_09_1512,new_STLI_practise,2020.2.10,143.78496670293111,
LZ_scrambled\LZ_scrambled_167.jpg,LZ_scrambled\LZ_scrambled_152.jpg,LZ_scrambled\LZ_scrambled_174.jpg,LZ_scrambled\LZ_scrambled_191.jpg,LZ_scrambled\LZ_scrambled_196.jpg,LZ_scrambled\LZ_scrambled_64.jpg,LZ_scrambled\LZ_scrambled_107.jpg,LZ_scrambled\LZ_scrambled_153.jpg,     ,     ,     ,     ,     ,     ,     ,     ,2,LZ_scrambled\LZ_scrambled_28.jpg,LZ_scrambled\LZ_scrambled_152.jpg,LZ_scrambled\LZ_scrambled_155.jpg,LZ_scrambled\LZ_scrambled_209.jpg,    z,2,22,,,,,,,,,,,,,,,,,0,7,7,7,,,,,0,0,0,0,,,,,,,,,,,,,,,,,,,,,,,185.5205862999428,None,,,,,,,,,,,,,,,,,,,,,,,,186.86938499996904,187.32379629998468,187.3596284999512,187.81012709997594,187.85950809996575,188.31029659998603,188.35961159993894,188.8102640999714,188.85956150002312,189.31026890000794,189.35969069995917,189.81069289997686,189.85952940001152,190.31027949997224,190.35967659996822,None,,,,,,,,,,,,,,,,,,,,,,,,,,,,,99,001,2020_Dec_09_1512,new_STLI_practise,2020.2.10,143.78496670293111,
LZ_scrambled\LZ_scrambled_167.jpg,LZ_scrambled\LZ_scrambled_152.jpg,LZ_scrambled\LZ_scrambled_174.jpg,LZ_scrambled\LZ_scrambled_191.jpg,LZ_scrambled\LZ_scrambled_196.jpg,LZ_scrambled\LZ_scrambled_64.jpg,LZ_scrambled\LZ_scrambled_107.jpg,LZ_scrambled\LZ_scrambled_153.jpg,     ,     ,     ,     ,     ,     ,     ,     ,2,LZ_scrambled\LZ_scrambled_28.jpg,LZ_scrambled\LZ_scrambled_152.jpg,LZ_scrambled\LZ_scrambled_155.jpg,LZ_scrambled\LZ_scrambled_209.jpg,    z,2,22,,,,,,,,,,,,,,,,,0,7,7,7,,,,,,,,,,,,,,,,,,,,,,,,,,,,,,,,,,,,,,,,,190.67497249995358,191.69119139993563,191.6813885999145,None,191.6813885999145,None,191.6813885999145,None,191.6813885999145,None,k,0,0.5938932000426576,1.0004439996555448,None,,,,,,,,,,,,,,,,,,,,,,,,,,,,,,,,,,,,,,,,,,,,,99,001,2020_Dec_09_1512,new_STLI_practise,2020.2.10,143.78496670293111,
LZ_scrambled\LZ_scrambled_145.jpg,LZ_scrambled\LZ_scrambled_87.jpg,LZ_scrambled\LZ_scrambled_34.jpg,LZ_scrambled\LZ_scrambled_178.jpg,LZ_scrambled\LZ_scrambled_92.jpg,LZ_scrambled\LZ_scrambled_84.jpg,LZ_scrambled\LZ_scrambled_66.jpg,LZ_scrambled\LZ_scrambled_213.jpg,     ,     ,     ,     ,     ,     ,     ,     ,2,LZ_scrambled\LZ_scrambled_174.jpg,LZ_scrambled\LZ_scrambled_145.jpg,LZ_scrambled\LZ_scrambled_224.jpg,LZ_scrambled\LZ_scrambled_89.jpg,    z,2,22,,,,,,,,,,,,,,,,,0,8,8,8,,,,,0,0,0,0,,,,,,,,,,,,,,,,,,,,,,,192.2845564999152,None,,,,,,,,,,,,,,,,,,,,,,,,193.566092699999,194.01884109992534,194.0613844000036,194.51180430001114,194.560977099929,195.0197848000098,195.05741959996521,195.50551950000226,195.56125079991762,196.01085500000045,196.06117959995754,196.5118186000036,196.56169889995363,197.01180640002713,197.05709729995579,None,,,,,,,,,,,,,,,,,,,,,,,,,,,,,99,001,2020_Dec_09_1512,new_STLI_practise,2020.2.10,143.78496670293111,
LZ_scrambled\LZ_scrambled_145.jpg,LZ_scrambled\LZ_scrambled_87.jpg,LZ_scrambled\LZ_scrambled_34.jpg,LZ_scrambled\LZ_scrambled_178.jpg,LZ_scrambled\LZ_scrambled_92.jpg,LZ_scrambled\LZ_scrambled_84.jpg,LZ_scrambled\LZ_scrambled_66.jpg,LZ_scrambled\LZ_scrambled_213.jpg,     ,     ,     ,     ,     ,     ,     ,     ,2,LZ_scrambled\LZ_scrambled_174.jpg,LZ_scrambled\LZ_scrambled_145.jpg,LZ_scrambled\LZ_scrambled_224.jpg,LZ_scrambled\LZ_scrambled_89.jpg,    z,2,22,,,,,,,,,,,,,,,,,0,8,8,8,,,,,,,,,,,,,,,,,,,,,,,,,,,,,,,,,,,,,,,,,197.3645497999387,198.37445300002582,198.36242090002634,None,198.36242090002634,None,198.36242090002634,None,198.36242090002634,None,z,0,0.33832690003328025,1.0053612298797816,None,,,,,,,,,,,,,,,,,,,,,,,,,,,,,,,,,,,,,,,,,,,,,99,001,2020_Dec_09_1512,new_STLI_practise,2020.2.10,143.78496670293111,
LZ_scrambled\LZ_scrambled_54.jpg,LZ_scrambled\LZ_scrambled_226.jpg,LZ_scrambled\LZ_scrambled_82.jpg,LZ_scrambled\LZ_scrambled_221.jpg,LZ_scrambled\LZ_scrambled_75.jpg,LZ_scrambled\LZ_scrambled_29.jpg,LZ_scrambled\LZ_scrambled_238.jpg,LZ_scrambled\LZ_scrambled_101.jpg,     ,     ,     ,     ,     ,     ,     ,     ,2,LZ_scrambled\LZ_scrambled_149.jpg,LZ_scrambled\LZ_scrambled_221.jpg,LZ_scrambled\LZ_scrambled_228.jpg,LZ_scrambled\LZ_scrambled_155.jpg,    z,2,22,,,,,,,,,,,,,,,,,0,9,9,9,,,,,0,0,0,0,,,,,,,,,,,,,,,,,,,,,,,198.72902650001924,None,,,,,,,,,,,,,,,,,,,,,,,,200.06923779996578,200.51875159994233,200.55405139992945,201.00487599999178,201.05434289993718,201.5024826999288,201.55461099999957,202.00923939992208,202.05406819994096,202.50744129996747,202.55450239998754,203.00528659997508,203.05399239994586,203.50488489994314,203.55429429991636,None,,,,,,,,,,,,,,,,,,,,,,,,,,,,,99,001,2020_Dec_09_1512,new_STLI_practise,2020.2.10,143.78496670293111,
LZ_scrambled\LZ_scrambled_54.jpg,LZ_scrambled\LZ_scrambled_226.jpg,LZ_scrambled\LZ_scrambled_82.jpg,LZ_scrambled\LZ_scrambled_221.jpg,LZ_scrambled\LZ_scrambled_75.jpg,LZ_scrambled\LZ_scrambled_29.jpg,LZ_scrambled\LZ_scrambled_238.jpg,LZ_scrambled\LZ_scrambled_101.jpg,     ,     ,     ,     ,     ,     ,     ,     ,2,LZ_scrambled\LZ_scrambled_149.jpg,LZ_scrambled\LZ_scrambled_221.jpg,LZ_scrambled\LZ_scrambled_228.jpg,LZ_scrambled\LZ_scrambled_155.jpg,    z,2,22,,,,,,,,,,,,,,,,,0,9,9,9,,,,,,,,,,,,,,,,,,,,,,,,,,,,,,,,,,,,,,,,,203.85000480001327,204.8585912999697,204.84785739996005,None,204.84785739996005,None,204.84785739996005,None,204.84785739996005,None,z,0,0.5265102999983355,1.006856249878183,None,,,,,,,,,,,,,,,,,,,,,,,,,,,,,,,,,,,,,,,,,,,,,99,001,2020_Dec_09_1512,new_STLI_practise,2020.2.10,143.78496670293111,
LZ_scrambled\LZ_scrambled_129.jpg,LZ_scrambled\LZ_scrambled_214.jpg,LZ_scrambled\LZ_scrambled_122.jpg,LZ_scrambled\LZ_scrambled_1.jpg,LZ_scrambled\LZ_scrambled_235.jpg,LZ_scrambled\LZ_scrambled_58.jpg,LZ_scrambled\LZ_scrambled_113.jpg,LZ_scrambled\LZ_scrambled_57.jpg,LZ_scrambled\LZ_scrambled_110.jpg,LZ_scrambled\LZ_scrambled_42.jpg,LZ_scrambled\LZ_scrambled_158.jpg,LZ_scrambled\LZ_scrambled_85.jpg,     ,     ,     ,     ,3,LZ_scrambled\LZ_scrambled_240.jpg,LZ_scrambled\LZ_scrambled_113.jpg,LZ_scrambled\LZ_scrambled_39.jpg,LZ_scrambled\LZ_scrambled_59.jpg,    z,2,23,,,,,,,,,,,,,,,,,0,10,10,10,,,,,,,,,0,0,0,0,,,,,,,,,,,,,,,,,,,205.38970749999862,None,,,,,,,,,,,,,,,,,,,,,,,,,,,,,,,,,,,,,,,,206.9698290999513,207.26877520000562,207.3112756999908,207.61605359998066,207.65843509999104,207.96361600002274,207.95755089994054,208.26178269996308,208.31124019995332,208.61582649999764,208.6581170000136,208.95717389998026,208.95717389998026,209.26163109997287,209.31094779993873,209.61583169992082,209.65832950000186,209.96367849991657,209.95747279992793,210.2617965999525,210.31121840002015,None,None,None,,,,,99,001,2020_Dec_09_1512,new_STLI_practise,2020.2.10,143.78496670293111,
LZ_scrambled\LZ_scrambled_129.jpg,LZ_scrambled\LZ_scrambled_214.jpg,LZ_scrambled\LZ_scrambled_122.jpg,LZ_scrambled\LZ_scrambled_1.jpg,LZ_scrambled\LZ_scrambled_235.jpg,LZ_scrambled\LZ_scrambled_58.jpg,LZ_scrambled\LZ_scrambled_113.jpg,LZ_scrambled\LZ_scrambled_57.jpg,LZ_scrambled\LZ_scrambled_110.jpg,LZ_scrambled\LZ_scrambled_42.jpg,LZ_scrambled\LZ_scrambled_158.jpg,LZ_scrambled\LZ_scrambled_85.jpg,     ,     ,     ,     ,3,LZ_scrambled\LZ_scrambled_240.jpg,LZ_scrambled\LZ_scrambled_113.jpg,LZ_scrambled\LZ_scrambled_39.jpg,LZ_scrambled\LZ_scrambled_59.jpg,    z,2,23,,,,,,,,,,,,,,,,,0,10,10,10,,,,,,,,,,,,,,,,,,,,,,,,,,,,,,,,,,,,,,,,,210.5126824999461,211.52027029998135,211.5080776999239,None,211.5080776999239,None,211.5080776999239,None,211.5080776999239,None,z,0,0.6019371999427676,1.005417659995146,None,,,,,,,,,,,,,,,,,,,,,,,,,,,,,,,,,,,,,,,,,,,,,99,001,2020_Dec_09_1512,new_STLI_practise,2020.2.10,143.78496670293111,
LZ_scrambled\LZ_scrambled_218.jpg,LZ_scrambled\LZ_scrambled_227.jpg,LZ_scrambled\LZ_scrambled_170.jpg,LZ_scrambled\LZ_scrambled_203.jpg,LZ_scrambled\LZ_scrambled_149.jpg,LZ_scrambled\LZ_scrambled_26.jpg,LZ_scrambled\LZ_scrambled_202.jpg,LZ_scrambled\LZ_scrambled_5.jpg,LZ_scrambled\LZ_scrambled_100.jpg,LZ_scrambled\LZ_scrambled_125.jpg,LZ_scrambled\LZ_scrambled_109.jpg,LZ_scrambled\LZ_scrambled_65.jpg,     ,     ,     ,     ,3,LZ_scrambled\LZ_scrambled_184.jpg,LZ_scrambled\LZ_scrambled_100.jpg,LZ_scrambled\LZ_scrambled_116.jpg,LZ_scrambled\LZ_scrambled_136.jpg,    z,2,23,,,,,,,,,,,,,,,,,0,11,11,11,,,,,,,,,0,0,0,0,,,,,,,,,,,,,,,,,,,212.13331489998382,None,,,,,,,,,,,,,,,,,,,,,,,,,,,,,,,,,,,,,,,,213.64409560000058,213.94921539991628,213.98454739991575,214.28969489992596,214.3323287999956,214.63744830002543,214.63744830002543,214.9426030999748,214.9861981999129,215.2897239999147,215.33215639996342,215.63773969991598,215.63773969991598,215.94259579991922,215.99537949997466,216.2965481999563,216.332117700018,216.63764969992917,216.63764969992917,216.94245169998612,216.98634679999668,None,None,None,,,,,99,001,2020_Dec_09_1512,new_STLI_practise,2020.2.10,143.78496670293111,
LZ_scrambled\LZ_scrambled_218.jpg,LZ_scrambled\LZ_scrambled_227.jpg,LZ_scrambled\LZ_scrambled_170.jpg,LZ_scrambled\LZ_scrambled_203.jpg,LZ_scrambled\LZ_scrambled_149.jpg,LZ_scrambled\LZ_scrambled_26.jpg,LZ_scrambled\LZ_scrambled_202.jpg,LZ_scrambled\LZ_scrambled_5.jpg,LZ_scrambled\LZ_scrambled_100.jpg,LZ_scrambled\LZ_scrambled_125.jpg,LZ_scrambled\LZ_scrambled_109.jpg,LZ_scrambled\LZ_scrambled_65.jpg,     ,     ,     ,     ,3,LZ_scrambled\LZ_scrambled_184.jpg,LZ_scrambled\LZ_scrambled_100.jpg,LZ_scrambled\LZ_scrambled_116.jpg,LZ_scrambled\LZ_scrambled_136.jpg,    z,2,23,,,,,,,,,,,,,,,,,0,11,11,11,,,,,,,,,,,,,,,,,,,,,,,,,,,,,,,,,,,,,,,,,217.26018789992668,218.26841599994805,218.25782549998257,None,218.25782549998257,None,218.25782549998257,None,218.25782549998257,None,a,0,0.6585257999831811,1.0034037597943097,None,,,,,,,,,,,,,,,,,,,,,,,,,,,,,,,,,,,,,,,,,,,,,99,001,2020_Dec_09_1512,new_STLI_practise,2020.2.10,143.78496670293111,
LZ_scrambled\LZ_scrambled_70.jpg,LZ_scrambled\LZ_scrambled_138.jpg,LZ_scrambled\LZ_scrambled_78.jpg,LZ_scrambled\LZ_scrambled_114.jpg,LZ_scrambled\LZ_scrambled_237.jpg,LZ_scrambled\LZ_scrambled_68.jpg,LZ_scrambled\LZ_scrambled_119.jpg,LZ_scrambled\LZ_scrambled_172.jpg,LZ_scrambled\LZ_scrambled_59.jpg,LZ_scrambled\LZ_scrambled_105.jpg,LZ_scrambled\LZ_scrambled_240.jpg,LZ_scrambled\LZ_scrambled_194.jpg,     ,     ,     ,     ,3,LZ_scrambled\LZ_scrambled_149.jpg,LZ_scrambled\LZ_scrambled_172.jpg,LZ_scrambled\LZ_scrambled_4.jpg,LZ_scrambled\LZ_scrambled_142.jpg,    z,2,23,,,,,,,,,,,,,,,,,0,12,12,12,,,,,,,,,0,0,0,0,,,,,,,,,,,,,,,,,,,218.9375824999297,None,,,,,,,,,,,,,,,,,,,,,,,,,,,,,,,,,,,,,,,,220.38138879998587,220.6855941999238,220.72102930000983,221.02547579992097,221.0750234000152,221.3805604999652,221.37423099996522,221.67862709995825,221.7211586999474,222.025905199931,222.0753679999616,222.3804318999173,222.3741004000185,222.67864269996062,222.72101879992988,223.0191555999918,223.07534620002843,223.38053530000616,223.37458559998777,223.67897100001574,223.7214894000208,None,None,None,,,,,99,001,2020_Dec_09_1512,new_STLI_practise,2020.2.10,143.78496670293111,
LZ_scrambled\LZ_scrambled_70.jpg,LZ_scrambled\LZ_scrambled_138.jpg,LZ_scrambled\LZ_scrambled_78.jpg,LZ_scrambled\LZ_scrambled_114.jpg,LZ_scrambled\LZ_scrambled_237.jpg,LZ_scrambled\LZ_scrambled_68.jpg,LZ_scrambled\LZ_scrambled_119.jpg,LZ_scrambled\LZ_scrambled_172.jpg,LZ_scrambled\LZ_scrambled_59.jpg,LZ_scrambled\LZ_scrambled_105.jpg,LZ_scrambled\LZ_scrambled_240.jpg,LZ_scrambled\LZ_scrambled_194.jpg,     ,     ,     ,     ,3,LZ_scrambled\LZ_scrambled_149.jpg,LZ_scrambled\LZ_scrambled_172.jpg,LZ_scrambled\LZ_scrambled_4.jpg,LZ_scrambled\LZ_scrambled_142.jpg,    z,2,23,,,,,,,,,,,,,,,,,0,12,12,12,,,,,,,,,,,,,,,,,,,,,,,,,,,,,,,,,,,,,,,,,224.08813930000179,225.09886959998403,225.0871692999499,None,225.0871692999499,None,225.0871692999499,None,225.0871692999499,None,z,0,0.4522959999740124,1.0073610697872937,None,,,,,,,,,,,,,,,,,,,,,,,,,,,,,,,,,,,,,,,,,,,,,99,001,2020_Dec_09_1512,new_STLI_practise,2020.2.10,143.78496670293111,
LZ_scrambled\LZ_scrambled_98.jpg,LZ_scrambled\LZ_scrambled_148.jpg,LZ_scrambled\LZ_scrambled_74.jpg,LZ_scrambled\LZ_scrambled_108.jpg,LZ_scrambled\LZ_scrambled_146.jpg,LZ_scrambled\LZ_scrambled_130.jpg,LZ_scrambled\LZ_scrambled_63.jpg,LZ_scrambled\LZ_scrambled_142.jpg,LZ_scrambled\LZ_scrambled_147.jpg,LZ_scrambled\LZ_scrambled_97.jpg,LZ_scrambled\LZ_scrambled_150.jpg,LZ_scrambled\LZ_scrambled_177.jpg,     ,     ,     ,     ,3,LZ_scrambled\LZ_scrambled_211.jpg,LZ_scrambled\LZ_scrambled_146.jpg,LZ_scrambled\LZ_scrambled_235.jpg,LZ_scrambled\LZ_scrambled_157.jpg,    z,2,23,,,,,,,,,,,,,,,,,0,13,13,13,,,,,,,,,0,0,0,0,,,,,,,,,,,,,,,,,,,225.5671686999267,None,,,,,,,,,,,,,,,,,,,,,,,,,,,,,,,,,,,,,,,,226.93741809995845,227.23587879992556,227.27676899998914,227.58160129992757,227.63098499993794,227.93626569991466,227.930126799969,228.23437219997868,228.27704949991312,228.5816419000039,228.63104240002576,228.93005199998152,228.93005199998152,229.23545139993075,229.2768233999377,229.5816097999923,229.63093639991712,229.93644499999937,229.93008199997712,230.23451229999773,230.27686709992122,None,None,None,,,,,99,001,2020_Dec_09_1512,new_STLI_practise,2020.2.10,143.78496670293111,
LZ_scrambled\LZ_scrambled_98.jpg,LZ_scrambled\LZ_scrambled_148.jpg,LZ_scrambled\LZ_scrambled_74.jpg,LZ_scrambled\LZ_scrambled_108.jpg,LZ_scrambled\LZ_scrambled_146.jpg,LZ_scrambled\LZ_scrambled_130.jpg,LZ_scrambled\LZ_scrambled_63.jpg,LZ_scrambled\LZ_scrambled_142.jpg,LZ_scrambled\LZ_scrambled_147.jpg,LZ_scrambled\LZ_scrambled_97.jpg,LZ_scrambled\LZ_scrambled_150.jpg,LZ_scrambled\LZ_scrambled_177.jpg,     ,     ,     ,     ,3,LZ_scrambled\LZ_scrambled_211.jpg,LZ_scrambled\LZ_scrambled_146.jpg,LZ_scrambled\LZ_scrambled_235.jpg,LZ_scrambled\LZ_scrambled_157.jpg,    z,2,23,,,,,,,,,,,,,,,,,0,13,13,13,,,,,,,,,,,,,,,,,,,,,,,,,,,,,,,,,,,,,,,,,230.6796232999768,231.68556409992743,231.67506769998,None,231.67506769998,None,231.67506769998,None,231.67506769998,None,m,0,0.62256950000301,1.0077451899414882,None,,,,,,,,,,,,,,,,,,,,,,,,,,,,,,,,,,,,,,,,,,,,,99,001,2020_Dec_09_1512,new_STLI_practise,2020.2.10,143.78496670293111,
LZ_scrambled\LZ_scrambled_135.jpg,LZ_scrambled\LZ_scrambled_220.jpg,LZ_scrambled\LZ_scrambled_12.jpg,LZ_scrambled\LZ_scrambled_43.jpg,LZ_scrambled\LZ_scrambled_234.jpg,LZ_scrambled\LZ_scrambled_102.jpg,LZ_scrambled\LZ_scrambled_38.jpg,LZ_scrambled\LZ_scrambled_24.jpg,LZ_scrambled\LZ_scrambled_199.jpg,LZ_scrambled\LZ_scrambled_111.jpg,LZ_scrambled\LZ_scrambled_51.jpg,LZ_scrambled\LZ_scrambled_112.jpg,     ,     ,     ,     ,3,LZ_scrambled\LZ_scrambled_185.jpg,LZ_scrambled\LZ_scrambled_38.jpg,LZ_scrambled\LZ_scrambled_54.jpg,LZ_scrambled\LZ_scrambled_27.jpg,    z,2,23,,,,,,,,,,,,,,,,,0,14,14,14,,,,,,,,,0,0,0,0,,,,,,,,,,,,,,,,,,,232.31757640000433,None,,,,,,,,,,,,,,,,,,,,,,,,,,,,,,,,,,,,,,,,233.73908700002357,234.03988529997878,234.07540610001888,234.37415849999525,234.4296033999417,234.73515850002877,234.7287877999479,235.03306169994175,235.07556389993988,235.3804762000218,235.4295027999906,235.73473889997695,235.7284560999833,236.03309869999066,236.0755366999656,236.3802580999909,236.42962259997148,236.73521309997886,236.72960289998446,237.03304379992187,237.07551609992515,None,None,None,,,,,99,001,2020_Dec_09_1512,new_STLI_practise,2020.2.10,143.78496670293111,
LZ_scrambled\LZ_scrambled_135.jpg,LZ_scrambled\LZ_scrambled_220.jpg,LZ_scrambled\LZ_scrambled_12.jpg,LZ_scrambled\LZ_scrambled_43.jpg,LZ_scrambled\LZ_scrambled_234.jpg,LZ_scrambled\LZ_scrambled_102.jpg,LZ_scrambled\LZ_scrambled_38.jpg,LZ_scrambled\LZ_scrambled_24.jpg,LZ_scrambled\LZ_scrambled_199.jpg,LZ_scrambled\LZ_scrambled_111.jpg,LZ_scrambled\LZ_scrambled_51.jpg,LZ_scrambled\LZ_scrambled_112.jpg,     ,     ,     ,     ,3,LZ_scrambled\LZ_scrambled_185.jpg,LZ_scrambled\LZ_scrambled_38.jpg,LZ_scrambled\LZ_scrambled_54.jpg,LZ_scrambled\LZ_scrambled_27.jpg,    z,2,23,,,,,,,,,,,,,,,,,0,14,14,14,,,,,,,,,,,,,,,,,,,,,,,,,,,,,,,,,,,,,,,,,237.41518699994776,238.42150960001163,238.41113329993095,None,238.41113329993095,None,238.41113329993095,None,238.41113329993095,None,m,0,0.385162900085561,1.0040930797113106,None,,,,,,,,,,,,,,,,,,,,,,,,,,,,,,,,,,,,,,,,,,,,,99,001,2020_Dec_09_1512,new_STLI_practise,2020.2.10,143.78496670293111,
LZ_noise\LZ_noise_136.jpg,LZ_noise\LZ_noise_208.jpg,LZ_noise\LZ_noise_44.jpg,LZ_noise\LZ_noise_164.jpg,     ,     ,     ,     ,     ,     ,     ,     ,     ,     ,     ,     ,1,LZ_noise\LZ_noise_3.jpg,LZ_noise\LZ_noise_208.jpg,LZ_noise\LZ_noise_40.jpg,LZ_noise\LZ_noise_232.jpg,    z,3,31,,,,,,,,,,,,,,,,,,,,,,,,,,,,,,,,,0,0,0,0,0,0,0,0,,,,,,,,,,,240.24538470001426,None,241.34546769992448,242.346203199937,242.33965560002252,243.3392783999443,243.3392783999443,244.33957419998478,244.33957419998478,None,,,,,,,,,,,,,,,,,,,,,,,,,,,,,,,,,,,,,,,,,,,,,,,,,,,,,,,,238.81016799993813,None,,,99,001,2020_Dec_09_1512,new_STLI_practise,2020.2.10,143.78496670293111,
LZ_noise\LZ_noise_136.jpg,LZ_noise\LZ_noise_208.jpg,LZ_noise\LZ_noise_44.jpg,LZ_noise\LZ_noise_164.jpg,     ,     ,     ,     ,     ,     ,     ,     ,     ,     ,     ,     ,1,LZ_noise\LZ_noise_3.jpg,LZ_noise\LZ_noise_208.jpg,LZ_noise\LZ_noise_40.jpg,LZ_noise\LZ_noise_232.jpg,    z,3,31,,,,,,,,,,,,,,,,,,,,,,,,,,,,,,,,,0,0,0,0,,,,,,,,,,,,,,,,,,,,,,,,,245.3874886999838,246.39754689997062,246.3758943999419,None,246.3758943999419,None,246.3758943999419,None,246.3758943999419,None,a,0,1.284209999954328,1.001824279781431,None,,,,,,,,,,,,,,,,,,,,,,,,,,,,,,,,,,,,,,,,,,,,,99,001,2020_Dec_09_1512,new_STLI_practise,2020.2.10,143.78496670293111,
LZ_noise\LZ_noise_61.jpg,LZ_noise\LZ_noise_106.jpg,LZ_noise\LZ_noise_4.jpg,LZ_noise\LZ_noise_171.jpg,     ,     ,     ,     ,     ,     ,     ,     ,     ,     ,     ,     ,1,LZ_noise\LZ_noise_139.jpg,LZ_noise\LZ_noise_61.jpg,LZ_noise\LZ_noise_1.jpg,LZ_noise\LZ_noise_185.jpg,    z,3,31,,,,,,,,,,,,,,,,,,,,,,,,,,,,,,,,,0,1,1,1,0,0,0,0,,,,,,,,,,,247.69290010002442,None,248.8269381999271,249.8254618999781,249.81903249991592,250.81854339991696,250.81854339991696,251.81935399991926,251.81935399991926,None,,,,,,,,,,,,,,,,,,,,,,,,,,,,,,,,,,,,,,,,,,,,,,,,,,,,,,,,,,,,99,001,2020_Dec_09_1512,new_STLI_practise,2020.2.10,143.78496670293111,
LZ_noise\LZ_noise_61.jpg,LZ_noise\LZ_noise_106.jpg,LZ_noise\LZ_noise_4.jpg,LZ_noise\LZ_noise_171.jpg,     ,     ,     ,     ,     ,     ,     ,     ,     ,     ,     ,     ,1,LZ_noise\LZ_noise_139.jpg,LZ_noise\LZ_noise_61.jpg,LZ_noise\LZ_noise_1.jpg,LZ_noise\LZ_noise_185.jpg,    z,3,31,,,,,,,,,,,,,,,,,,,,,,,,,,,,,,,,,0,1,1,1,,,,,,,,,,,,,,,,,,,,,,,,,252.81438519991934,253.81856289994903,253.8065087000141,None,253.8065087000141,None,253.8065087000141,None,253.8065087000141,None,k,0,1.186745599959977,1.002664859755896,None,,,,,,,,,,,,,,,,,,,,,,,,,,,,,,,,,,,,,,,,,,,,,99,001,2020_Dec_09_1512,new_STLI_practise,2020.2.10,143.78496670293111,
LZ_noise\LZ_noise_128.jpg,LZ_noise\LZ_noise_77.jpg,LZ_noise\LZ_noise_102.jpg,LZ_noise\LZ_noise_130.jpg,     ,     ,     ,     ,     ,     ,     ,     ,     ,     ,     ,     ,1,LZ_noise\LZ_noise_19.jpg,LZ_noise\LZ_noise_102.jpg,LZ_noise\LZ_noise_126.jpg,LZ_noise\LZ_noise_126.jpg,    z,3,31,,,,,,,,,,,,,,,,,,,,,,,,,,,,,,,,,0,2,2,2,0,0,0,0,,,,,,,,,,,255.0223850000184,None,256.13470830000006,257.1378179999301,257.1314962999895,258.1309336000122,258.1309336000122,259.1314513999969,259.1314513999969,None,,,,,,,,,,,,,,,,,,,,,,,,,,,,,,,,,,,,,,,,,,,,,,,,,,,,,,,,,,,,99,001,2020_Dec_09_1512,new_STLI_practise,2020.2.10,143.78496670293111,
LZ_noise\LZ_noise_128.jpg,LZ_noise\LZ_noise_77.jpg,LZ_noise\LZ_noise_102.jpg,LZ_noise\LZ_noise_130.jpg,     ,     ,     ,     ,     ,     ,     ,     ,     ,     ,     ,     ,1,LZ_noise\LZ_noise_19.jpg,LZ_noise\LZ_noise_102.jpg,LZ_noise\LZ_noise_126.jpg,LZ_noise\LZ_noise_126.jpg,    z,3,31,,,,,,,,,,,,,,,,,,,,,,,,,,,,,,,,,0,2,2,2,,,,,,,,,,,,,,,,,,,,,,,,,260.1170319999801,261.1246839999221,261.1131430999376,None,261.1131430999376,None,261.1131430999376,None,261.1131430999376,None,k,0,2.893945200019516,1.0055655799806118,None,,,,,,,,,,,,,,,,,,,,,,,,,,,,,,,,,,,,,,,,,,,,,99,001,2020_Dec_09_1512,new_STLI_practise,2020.2.10,143.78496670293111,
LZ_noise\LZ_noise_58.jpg,LZ_noise\LZ_noise_32.jpg,LZ_noise\LZ_noise_170.jpg,LZ_noise\LZ_noise_146.jpg,     ,     ,     ,     ,     ,     ,     ,     ,     ,     ,     ,     ,1,LZ_noise\LZ_noise_192.jpg,LZ_noise\LZ_noise_58.jpg,LZ_noise\LZ_noise_182.jpg,LZ_noise\LZ_noise_136.jpg,    z,3,31,,,,,,,,,,,,,,,,,,,,,,,,,,,,,,,,,0,3,3,3,0,0,0,0,,,,,,,,,,,264.0312444999581,None,265.18454469996504,266.1869481999893,266.1802154999459,267.18003950000275,267.18003950000275,268.1797272999538,268.1797272999538,None,,,,,,,,,,,,,,,,,,,,,,,,,,,,,,,,,,,,,,,,,,,,,,,,,,,,,,,,,,,,99,001,2020_Dec_09_1512,new_STLI_practise,2020.2.10,143.78496670293111,
LZ_noise\LZ_noise_58.jpg,LZ_noise\LZ_noise_32.jpg,LZ_noise\LZ_noise_170.jpg,LZ_noise\LZ_noise_146.jpg,     ,     ,     ,     ,     ,     ,     ,     ,     ,     ,     ,     ,1,LZ_noise\LZ_noise_192.jpg,LZ_noise\LZ_noise_58.jpg,LZ_noise\LZ_noise_182.jpg,LZ_noise\LZ_noise_136.jpg,    z,3,31,,,,,,,,,,,,,,,,,,,,,,,,,,,,,,,,,0,3,3,3,,,,,,,,,,,,,,,,,,,,,,,,,269.1025862999959,270.1110537999775,270.0982293999987,None,270.0982293999987,None,270.0982293999987,None,270.0982293999987,None,a,0,0.6195518999593332,1.003612699918449,None,,,,,,,,,,,,,,,,,,,,,,,,,,,,,,,,,,,,,,,,,,,,,99,001,2020_Dec_09_1512,new_STLI_practise,2020.2.10,143.78496670293111,
LZ_noise\LZ_noise_154.jpg,LZ_noise\LZ_noise_174.jpg,LZ_noise\LZ_noise_72.jpg,LZ_noise\LZ_noise_65.jpg,     ,     ,     ,     ,     ,     ,     ,     ,     ,     ,     ,     ,1,LZ_noise\LZ_noise_232.jpg,LZ_noise\LZ_noise_174.jpg,LZ_noise\LZ_noise_74.jpg,LZ_noise\LZ_noise_219.jpg,    z,3,31,,,,,,,,,,,,,,,,,,,,,,,,,,,,,,,,,0,4,4,4,0,0,0,0,,,,,,,,,,,270.7365598999895,None,271.8666398000205,272.86738369998056,272.8609616999747,273.86152879998554,273.86152879998554,274.8615381999407,274.8615381999407,None,,,,,,,,,,,,,,,,,,,,,,,,,,,,,,,,,,,,,,,,,,,,,,,,,,,,,,,,,,,,99,001,2020_Dec_09_1512,new_STLI_practise,2020.2.10,143.78496670293111,
LZ_noise\LZ_noise_154.jpg,LZ_noise\LZ_noise_174.jpg,LZ_noise\LZ_noise_72.jpg,LZ_noise\LZ_noise_65.jpg,     ,     ,     ,     ,     ,     ,     ,     ,     ,     ,     ,     ,1,LZ_noise\LZ_noise_232.jpg,LZ_noise\LZ_noise_174.jpg,LZ_noise\LZ_noise_74.jpg,LZ_noise\LZ_noise_219.jpg,    z,3,31,,,,,,,,,,,,,,,,,,,,,,,,,,,,,,,,,0,4,4,4,,,,,,,,,,,,,,,,,,,,,,,,,275.83800119999796,276.8476042000111,276.83469239994884,None,276.83469239994884,None,276.83469239994884,None,276.83469239994884,None,a,0,0.4063534000888467,1.007067049969919,None,,,,,,,,,,,,,,,,,,,,,,,,,,,,,,,,,,,,,,,,,,,,,99,001,2020_Dec_09_1512,new_STLI_practise,2020.2.10,143.78496670293111,
LZ_noise\LZ_noise_169.jpg,LZ_noise\LZ_noise_228.jpg,LZ_noise\LZ_noise_137.jpg,LZ_noise\LZ_noise_237.jpg,LZ_noise\LZ_noise_135.jpg,LZ_noise\LZ_noise_119.jpg,LZ_noise\LZ_noise_67.jpg,LZ_noise\LZ_noise_184.jpg,     ,     ,     ,     ,     ,     ,     ,     ,2,LZ_noise\LZ_noise_83.jpg,LZ_noise\LZ_noise_137.jpg,LZ_noise\LZ_noise_140.jpg,LZ_noise\LZ_noise_107.jpg,    z,3,32,,,,,,,,,,,,,,,,,,,,,,,,,,,,,,,,,0,5,5,5,,,,,0,0,0,0,,,,,,,277.2701136999531,None,,,,,,,,,,,,,,,,,,,,,,,,278.6126977999229,279.0615160999587,279.1037690999219,279.55481050000526,279.6035002999706,280.05132470000535,280.1035556999268,280.5545820000116,280.60360629996285,281.0543296999531,281.1036122000078,281.5545130999526,281.60358789993916,282.0545519000152,282.103672600002,None,,,,,,,,,,,,,,,,,,,,,,,,,,,,,99,001,2020_Dec_09_1512,new_STLI_practise,2020.2.10,143.78496670293111,
LZ_noise\LZ_noise_169.jpg,LZ_noise\LZ_noise_228.jpg,LZ_noise\LZ_noise_137.jpg,LZ_noise\LZ_noise_237.jpg,LZ_noise\LZ_noise_135.jpg,LZ_noise\LZ_noise_119.jpg,LZ_noise\LZ_noise_67.jpg,LZ_noise\LZ_noise_184.jpg,     ,     ,     ,     ,     ,     ,     ,     ,2,LZ_noise\LZ_noise_83.jpg,LZ_noise\LZ_noise_137.jpg,LZ_noise\LZ_noise_140.jpg,LZ_noise\LZ_noise_107.jpg,    z,3,32,,,,,,,,,,,,,,,,,,,,,,,,,,,,,,,,,0,5,5,5,,,,,,,,,,,,,,,,,,,,,,,,,282.3501606999198,283.35620909999125,283.3422417999245,None,283.3422417999245,None,283.3422417999245,None,283.3422417999245,None,z,0,0.601499899988994,1.0029632297810167,None,,,,,,,,,,,,,,,,,,,,,,,,,,,,,,,,,,,,,,,,,,,,,99,001,2020_Dec_09_1512,new_STLI_practise,2020.2.10,143.78496670293111,
LZ_noise\LZ_noise_63.jpg,LZ_noise\LZ_noise_178.jpg,LZ_noise\LZ_noise_122.jpg,LZ_noise\LZ_noise_120.jpg,LZ_noise\LZ_noise_97.jpg,LZ_noise\LZ_noise_20.jpg,LZ_noise\LZ_noise_201.jpg,LZ_noise\LZ_noise_202.jpg,     ,     ,     ,     ,     ,     ,     ,     ,2,LZ_noise\LZ_noise_93.jpg,LZ_noise\LZ_noise_20.jpg,LZ_noise\LZ_noise_120.jpg,LZ_noise\LZ_noise_85.jpg,    z,3,32,,,,,,,,,,,,,,,,,,,,,,,,,,,,,,,,,0,6,6,6,,,,,0,0,0,0,,,,,,,283.9669648000272,None,,,,,,,,,,,,,,,,,,,,,,,,285.213830600027,285.6656491999747,285.70775139995385,286.15845500002615,286.2078349000076,286.65873099991586,286.70790659997147,287.15847389993723,287.2076901999535,287.6586831000168,287.70766959991306,288.1585047999397,288.2075561999809,288.6586599999573,288.70767709997017,None,,,,,,,,,,,,,,,,,,,,,,,,,,,,,99,001,2020_Dec_09_1512,new_STLI_practise,2020.2.10,143.78496670293111,
LZ_noise\LZ_noise_63.jpg,LZ_noise\LZ_noise_178.jpg,LZ_noise\LZ_noise_122.jpg,LZ_noise\LZ_noise_120.jpg,LZ_noise\LZ_noise_97.jpg,LZ_noise\LZ_noise_20.jpg,LZ_noise\LZ_noise_201.jpg,LZ_noise\LZ_noise_202.jpg,     ,     ,     ,     ,     ,     ,     ,     ,2,LZ_noise\LZ_noise_93.jpg,LZ_noise\LZ_noise_20.jpg,LZ_noise\LZ_noise_120.jpg,LZ_noise\LZ_noise_85.jpg,    z,3,32,,,,,,,,,,,,,,,,,,,,,,,,,,,,,,,,,0,6,6,6,,,,,,,,,,,,,,,,,,,,,,,,,289.0029801999917,290.01157789991703,290.00121509993915,None,290.00121509993915,None,290.00121509993915,None,290.00121509993915,None,k,0,0.4222682999679819,1.0053613398922607,None,,,,,,,,,,,,,,,,,,,,,,,,,,,,,,,,,,,,,,,,,,,,,99,001,2020_Dec_09_1512,new_STLI_practise,2020.2.10,143.78496670293111,
LZ_noise\LZ_noise_167.jpg,LZ_noise\LZ_noise_112.jpg,LZ_noise\LZ_noise_64.jpg,LZ_noise\LZ_noise_195.jpg,LZ_noise\LZ_noise_18.jpg,LZ_noise\LZ_noise_162.jpg,LZ_noise\LZ_noise_105.jpg,LZ_noise\LZ_noise_192.jpg,     ,     ,     ,     ,     ,     ,     ,     ,2,LZ_noise\LZ_noise_174.jpg,LZ_noise\LZ_noise_18.jpg,LZ_noise\LZ_noise_105.jpg,LZ_noise\LZ_noise_156.jpg,    z,3,32,,,,,,,,,,,,,,,,,,,,,,,,,,,,,,,,,0,7,7,7,,,,,0,0,0,0,,,,,,,290.4381137000164,None,,,,,,,,,,,,,,,,,,,,,,,,291.61888670001645,292.0682887999574,292.1105945999734,292.5615424999269,292.61090289999265,293.06133609998506,293.11054219992366,293.5616078999592,293.6106290000025,294.06148719997145,294.1105637999717,294.56173710001167,294.61073239997495,295.06162429996766,295.1108093999792,None,,,,,,,,,,,,,,,,,,,,,,,,,,,,,99,001,2020_Dec_09_1512,new_STLI_practise,2020.2.10,143.78496670293111,
LZ_noise\LZ_noise_167.jpg,LZ_noise\LZ_noise_112.jpg,LZ_noise\LZ_noise_64.jpg,LZ_noise\LZ_noise_195.jpg,LZ_noise\LZ_noise_18.jpg,LZ_noise\LZ_noise_162.jpg,LZ_noise\LZ_noise_105.jpg,LZ_noise\LZ_noise_192.jpg,     ,     ,     ,     ,     ,     ,     ,     ,2,LZ_noise\LZ_noise_174.jpg,LZ_noise\LZ_noise_18.jpg,LZ_noise\LZ_noise_105.jpg,LZ_noise\LZ_noise_156.jpg,    z,3,32,,,,,,,,,,,,,,,,,,,,,,,,,,,,,,,,,0,7,7,7,,,,,,,,,,,,,,,,,,,,,,,,,295.48238579998724,296.49664339993615,296.47406409995165,None,296.47406409995165,None,296.47406409995165,None,296.47406409995165,None,m,0,0.8531302000628784,1.009240579791367,None,,,,,,,,,,,,,,,,,,,,,,,,,,,,,,,,,,,,,,,,,,,,,99,001,2020_Dec_09_1512,new_STLI_practise,2020.2.10,143.78496670293111,
LZ_noise\LZ_noise_54.jpg,LZ_noise\LZ_noise_155.jpg,LZ_noise\LZ_noise_95.jpg,LZ_noise\LZ_noise_194.jpg,LZ_noise\LZ_noise_197.jpg,LZ_noise\LZ_noise_33.jpg,LZ_noise\LZ_noise_46.jpg,LZ_noise\LZ_noise_19.jpg,     ,     ,     ,     ,     ,     ,     ,     ,2,LZ_noise\LZ_noise_101.jpg,LZ_noise\LZ_noise_197.jpg,LZ_noise\LZ_noise_162.jpg,LZ_noise\LZ_noise_135.jpg,    z,3,32,,,,,,,,,,,,,,,,,,,,,,,,,,,,,,,,,0,8,8,8,,,,,0,0,0,0,,,,,,,297.35507669998333,None,,,,,,,,,,,,,,,,,,,,,,,,298.6223011999391,299.0757012999384,299.1176218999317,299.56855670001823,299.61786549992394,300.0695598999737,300.1125238999957,300.5617897999473,300.61786060000304,301.07036569993943,301.11773069994524,301.56871239992324,301.6178976999363,302.0677572999848,302.1179230000125,None,,,,,,,,,,,,,,,,,,,,,,,,,,,,,99,001,2020_Dec_09_1512,new_STLI_practise,2020.2.10,143.78496670293111,
LZ_noise\LZ_noise_54.jpg,LZ_noise\LZ_noise_155.jpg,LZ_noise\LZ_noise_95.jpg,LZ_noise\LZ_noise_194.jpg,LZ_noise\LZ_noise_197.jpg,LZ_noise\LZ_noise_33.jpg,LZ_noise\LZ_noise_46.jpg,LZ_noise\LZ_noise_19.jpg,     ,     ,     ,     ,     ,     ,     ,     ,2,LZ_noise\LZ_noise_101.jpg,LZ_noise\LZ_noise_197.jpg,LZ_noise\LZ_noise_162.jpg,LZ_noise\LZ_noise_135.jpg,    z,3,32,,,,,,,,,,,,,,,,,,,,,,,,,,,,,,,,,0,8,8,8,,,,,,,,,,,,,,,,,,,,,,,,,302.3801051999908,303.38872970000375,303.3767898000078,None,303.3767898000078,None,303.3767898000078,None,303.3767898000078,None,a,0,0.5604340999852866,1.0037982700159773,None,,,,,,,,,,,,,,,,,,,,,,,,,,,,,,,,,,,,,,,,,,,,,99,001,2020_Dec_09_1512,new_STLI_practise,2020.2.10,143.78496670293111,
LZ_noise\LZ_noise_160.jpg,LZ_noise\LZ_noise_210.jpg,LZ_noise\LZ_noise_78.jpg,LZ_noise\LZ_noise_156.jpg,LZ_noise\LZ_noise_82.jpg,LZ_noise\LZ_noise_114.jpg,LZ_noise\LZ_noise_176.jpg,LZ_noise\LZ_noise_45.jpg,     ,     ,     ,     ,     ,     ,     ,     ,2,LZ_noise\LZ_noise_56.jpg,LZ_noise\LZ_noise_176.jpg,LZ_noise\LZ_noise_228.jpg,LZ_noise\LZ_noise_214.jpg,    z,3,32,,,,,,,,,,,,,,,,,,,,,,,,,,,,,,,,,0,9,9,9,,,,,0,0,0,0,,,,,,,303.9550811999943,None,,,,,,,,,,,,,,,,,,,,,,,,305.20348269992974,305.658944799914,305.69424380001146,306.14486429991666,306.19448760000523,306.643721899949,306.69454960001167,307.1450574999908,307.1940137000056,307.6460152999498,307.69430999993347,308.14513680001255,308.1942124000052,308.64546669996344,308.69430620002095,None,,,,,,,,,,,,,,,,,,,,,,,,,,,,,99,001,2020_Dec_09_1512,new_STLI_practise,2020.2.10,143.78496670293111,
LZ_noise\LZ_noise_160.jpg,LZ_noise\LZ_noise_210.jpg,LZ_noise\LZ_noise_78.jpg,LZ_noise\LZ_noise_156.jpg,LZ_noise\LZ_noise_82.jpg,LZ_noise\LZ_noise_114.jpg,LZ_noise\LZ_noise_176.jpg,LZ_noise\LZ_noise_45.jpg,     ,     ,     ,     ,     ,     ,     ,     ,2,LZ_noise\LZ_noise_56.jpg,LZ_noise\LZ_noise_176.jpg,LZ_noise\LZ_noise_228.jpg,LZ_noise\LZ_noise_214.jpg,    z,3,32,,,,,,,,,,,,,,,,,,,,,,,,,,,,,,,,,0,9,9,9,,,,,,,,,,,,,,,,,,,,,,,,,309.0220850999467,310.03090809995774,310.01867040002253,None,310.01867040002253,None,310.01867040002253,None,310.01867040002253,None,z,0,0.9138326999964193,1.008269889978692,None,,,,,,,,,,,,,,,,,,,,,,,,,,,,,,,,,,,,,,,,,,,,,99,001,2020_Dec_09_1512,new_STLI_practise,2020.2.10,143.78496670293111,
LZ_noise\LZ_noise_96.jpg,LZ_noise\LZ_noise_183.jpg,LZ_noise\LZ_noise_230.jpg,LZ_noise\LZ_noise_87.jpg,LZ_noise\LZ_noise_66.jpg,LZ_noise\LZ_noise_207.jpg,LZ_noise\LZ_noise_209.jpg,LZ_noise\LZ_noise_233.jpg,LZ_noise\LZ_noise_116.jpg,LZ_noise\LZ_noise_231.jpg,LZ_noise\LZ_noise_227.jpg,LZ_noise\LZ_noise_49.jpg,     ,     ,     ,     ,3,LZ_noise\LZ_noise_203.jpg,LZ_noise\LZ_noise_183.jpg,LZ_noise\LZ_noise_88.jpg,LZ_noise\LZ_noise_162.jpg,    z,3,33,,,,,,,,,,,,,,,,,,,,,,,,,,,,,,,,,0,10,10,10,,,,,,,,,0,0,0,0,,,310.9605242999969,None,,,,,,,,,,,,,,,,,,,,,,,,,,,,,,,,,,,,,,,,312.485660300008,312.7841039999621,312.82669789996,313.1314254999161,313.1735325999325,313.4831444999436,313.4831444999436,313.7840912999818,313.82632569991983,314.13160640001297,314.17365259991493,314.483676899923,314.483676899923,314.78407019993756,314.82630710001104,315.13129669998307,315.17384509998374,315.4839702999452,315.4839702999452,315.78403839992825,315.8263880999293,None,None,None,,,,,99,001,2020_Dec_09_1512,new_STLI_practise,2020.2.10,143.78496670293111,
LZ_noise\LZ_noise_96.jpg,LZ_noise\LZ_noise_183.jpg,LZ_noise\LZ_noise_230.jpg,LZ_noise\LZ_noise_87.jpg,LZ_noise\LZ_noise_66.jpg,LZ_noise\LZ_noise_207.jpg,LZ_noise\LZ_noise_209.jpg,LZ_noise\LZ_noise_233.jpg,LZ_noise\LZ_noise_116.jpg,LZ_noise\LZ_noise_231.jpg,LZ_noise\LZ_noise_227.jpg,LZ_noise\LZ_noise_49.jpg,     ,     ,     ,     ,3,LZ_noise\LZ_noise_203.jpg,LZ_noise\LZ_noise_183.jpg,LZ_noise\LZ_noise_88.jpg,LZ_noise\LZ_noise_162.jpg,    z,3,33,,,,,,,,,,,,,,,,,,,,,,,,,,,,,,,,,0,10,10,10,,,,,,,,,,,,,,,,,,,,,,,,,316.0757601999212,317.083808699972,317.07220029993914,None,317.07220029993914,None,317.07220029993914,None,317.07220029993914,None,m,0,0.28842490003444254,1.0092725899303332,None,,,,,,,,,,,,,,,,,,,,,,,,,,,,,,,,,,,,,,,,,,,,,99,001,2020_Dec_09_1512,new_STLI_practise,2020.2.10,143.78496670293111,
LZ_noise\LZ_noise_17.jpg,LZ_noise\LZ_noise_21.jpg,LZ_noise\LZ_noise_23.jpg,LZ_noise\LZ_noise_129.jpg,LZ_noise\LZ_noise_199.jpg,LZ_noise\LZ_noise_144.jpg,LZ_noise\LZ_noise_189.jpg,LZ_noise\LZ_noise_204.jpg,LZ_noise\LZ_noise_225.jpg,LZ_noise\LZ_noise_152.jpg,LZ_noise\LZ_noise_177.jpg,LZ_noise\LZ_noise_80.jpg,     ,     ,     ,     ,3,LZ_noise\LZ_noise_98.jpg,LZ_noise\LZ_noise_177.jpg,LZ_noise\LZ_noise_99.jpg,LZ_noise\LZ_noise_90.jpg,    z,3,33,,,,,,,,,,,,,,,,,,,,,,,,,,,,,,,,,0,11,11,11,,,,,,,,,0,0,0,0,,,317.38998300000094,None,,,,,,,,,,,,,,,,,,,,,,,,,,,,,,,,,,,,,,,,318.78785620001145,319.08972639997955,319.1318834000267,319.4367566999281,319.4828733999748,319.7856951999711,319.7784835000057,320.0776858999161,320.1321906999219,320.437489099917,320.4832685999572,320.78468889999203,320.7781827999279,321.0826229000231,321.1317416999955,321.42995619995054,321.48107590002473,321.7844021000201,321.77811179996934,322.0824891999364,322.13172699999996,None,None,None,,,,,99,001,2020_Dec_09_1512,new_STLI_practise,2020.2.10,143.78496670293111,
LZ_noise\LZ_noise_17.jpg,LZ_noise\LZ_noise_21.jpg,LZ_noise\LZ_noise_23.jpg,LZ_noise\LZ_noise_129.jpg,LZ_noise\LZ_noise_199.jpg,LZ_noise\LZ_noise_144.jpg,LZ_noise\LZ_noise_189.jpg,LZ_noise\LZ_noise_204.jpg,LZ_noise\LZ_noise_225.jpg,LZ_noise\LZ_noise_152.jpg,LZ_noise\LZ_noise_177.jpg,LZ_noise\LZ_noise_80.jpg,     ,     ,     ,     ,3,LZ_noise\LZ_noise_98.jpg,LZ_noise\LZ_noise_177.jpg,LZ_noise\LZ_noise_99.jpg,LZ_noise\LZ_noise_90.jpg,    z,3,33,,,,,,,,,,,,,,,,,,,,,,,,,,,,,,,,,0,11,11,11,,,,,,,,,,,,,,,,,,,,,,,,,322.47991589992307,323.49287900002673,323.46763760002796,None,323.46763760002796,None,323.46763760002796,None,323.46763760002796,None,z,0,1.0393297000555322,1.0039036099333316,None,,,,,,,,,,,,,,,,,,,,,,,,,,,,,,,,,,,,,,,,,,,,,99,001,2020_Dec_09_1512,new_STLI_practise,2020.2.10,143.78496670293111,
LZ_noise\LZ_noise_85.jpg,LZ_noise\LZ_noise_224.jpg,LZ_noise\LZ_noise_100.jpg,LZ_noise\LZ_noise_6.jpg,LZ_noise\LZ_noise_191.jpg,LZ_noise\LZ_noise_151.jpg,LZ_noise\LZ_noise_159.jpg,LZ_noise\LZ_noise_138.jpg,LZ_noise\LZ_noise_181.jpg,LZ_noise\LZ_noise_26.jpg,LZ_noise\LZ_noise_10.jpg,LZ_noise\LZ_noise_88.jpg,     ,     ,     ,     ,3,LZ_noise\LZ_noise_100.jpg,LZ_noise\LZ_noise_191.jpg,LZ_noise\LZ_noise_28.jpg,LZ_noise\LZ_noise_224.jpg,    z,3,33,,,,,,,,,,,,,,,,,,,,,,,,,,,,,,,,,0,12,12,12,,,,,,,,,0,0,0,0,,,324.53124229994137,None,,,,,,,,,,,,,,,,,,,,,,,,,,,,,,,,,,,,,,,,325.8840031999862,326.1870187999448,326.22231719992124,326.5273762999568,326.5764336999273,326.8818513000151,326.8754690999631,327.18007359991316,327.2224132999545,327.52722489996813,327.5764196999371,327.88173549994826,327.8753877999261,328.18005269998685,328.222330300021,328.52708099992014,328.57634839997627,328.88214230001904,328.875236999942,329.1798907999182,329.22267029993236,329.5273416999262,None,None,,,,,99,001,2020_Dec_09_1512,new_STLI_practise,2020.2.10,143.78496670293111,
LZ_noise\LZ_noise_85.jpg,LZ_noise\LZ_noise_224.jpg,LZ_noise\LZ_noise_100.jpg,LZ_noise\LZ_noise_6.jpg,LZ_noise\LZ_noise_191.jpg,LZ_noise\LZ_noise_151.jpg,LZ_noise\LZ_noise_159.jpg,LZ_noise\LZ_noise_138.jpg,LZ_noise\LZ_noise_181.jpg,LZ_noise\LZ_noise_26.jpg,LZ_noise\LZ_noise_10.jpg,LZ_noise\LZ_noise_88.jpg,     ,     ,     ,     ,3,LZ_noise\LZ_noise_100.jpg,LZ_noise\LZ_noise_191.jpg,LZ_noise\LZ_noise_28.jpg,LZ_noise\LZ_noise_224.jpg,    z,3,33,,,,,,,,,,,,,,,,,,,,,,,,,,,,,,,,,0,12,12,12,,,,,,,,,,,,,,,,,,,,,,,,,329.62177349999547,330.63277929998003,330.61991739994846,None,330.61991739994846,None,330.61991739994846,None,330.61991739994846,None,k,0,1.2140705999918282,1.005274609895423,None,,,,,,,,,,,,,,,,,,,,,,,,,,,,,,,,,,,,,,,,,,,,,99,001,2020_Dec_09_1512,new_STLI_practise,2020.2.10,143.78496670293111,
LZ_noise\LZ_noise_3.jpg,LZ_noise\LZ_noise_101.jpg,LZ_noise\LZ_noise_51.jpg,LZ_noise\LZ_noise_115.jpg,LZ_noise\LZ_noise_24.jpg,LZ_noise\LZ_noise_214.jpg,LZ_noise\LZ_noise_123.jpg,LZ_noise\LZ_noise_42.jpg,LZ_noise\LZ_noise_126.jpg,LZ_noise\LZ_noise_175.jpg,LZ_noise\LZ_noise_71.jpg,LZ_noise\LZ_noise_92.jpg,     ,     ,     ,     ,3,LZ_noise\LZ_noise_22.jpg,LZ_noise\LZ_noise_126.jpg,LZ_noise\LZ_noise_237.jpg,LZ_noise\LZ_noise_187.jpg,    z,3,33,,,,,,,,,,,,,,,,,,,,,,,,,,,,,,,,,0,13,13,13,,,,,,,,,0,0,0,0,,,331.85530980001204,None,,,,,,,,,,,,,,,,,,,,,,,,,,,,,,,,,,,,,,,,333.17934509995393,333.4816116999136,333.5214038999984,333.8260298999958,333.8750921000028,334.18066329997964,334.17415219999384,334.48975169996265,334.5232377999928,334.8257932999404,334.87524620001204,335.1807173999259,335.17406649992336,335.4801572000142,335.52110649994574,335.82617509993725,335.87507650000043,336.1805910000112,336.1741057999898,336.48116199998185,336.52098329993896,336.8259744999232,None,None,,,,,99,001,2020_Dec_09_1512,new_STLI_practise,2020.2.10,143.78496670293111,
LZ_noise\LZ_noise_3.jpg,LZ_noise\LZ_noise_101.jpg,LZ_noise\LZ_noise_51.jpg,LZ_noise\LZ_noise_115.jpg,LZ_noise\LZ_noise_24.jpg,LZ_noise\LZ_noise_214.jpg,LZ_noise\LZ_noise_123.jpg,LZ_noise\LZ_noise_42.jpg,LZ_noise\LZ_noise_126.jpg,LZ_noise\LZ_noise_175.jpg,LZ_noise\LZ_noise_71.jpg,LZ_noise\LZ_noise_92.jpg,     ,     ,     ,     ,3,LZ_noise\LZ_noise_22.jpg,LZ_noise\LZ_noise_126.jpg,LZ_noise\LZ_noise_237.jpg,LZ_noise\LZ_noise_187.jpg,    z,3,33,,,,,,,,,,,,,,,,,,,,,,,,,,,,,,,,,0,13,13,13,,,,,,,,,,,,,,,,,,,,,,,,,336.94627610000316,337.9497395999497,337.9394233999774,None,337.9394233999774,None,337.9394233999774,None,337.9394233999774,None,z,0,0.27657009998802096,1.0028907797532156,None,,,,,,,,,,,,,,,,,,,,,,,,,,,,,,,,,,,,,,,,,,,,,99,001,2020_Dec_09_1512,new_STLI_practise,2020.2.10,143.78496670293111,
LZ_noise\LZ_noise_84.jpg,LZ_noise\LZ_noise_37.jpg,LZ_noise\LZ_noise_158.jpg,LZ_noise\LZ_noise_161.jpg,LZ_noise\LZ_noise_5.jpg,LZ_noise\LZ_noise_143.jpg,LZ_noise\LZ_noise_108.jpg,LZ_noise\LZ_noise_83.jpg,LZ_noise\LZ_noise_38.jpg,LZ_noise\LZ_noise_99.jpg,LZ_noise\LZ_noise_34.jpg,LZ_noise\LZ_noise_30.jpg,     ,     ,     ,     ,3,LZ_noise\LZ_noise_83.jpg,LZ_noise\LZ_noise_99.jpg,LZ_noise\LZ_noise_89.jpg,LZ_noise\LZ_noise_205.jpg,    z,3,33,,,,,,,,,,,,,,,,,,,,,,,,,,,,,,,,,0,14,14,14,,,,,,,,,0,0,0,0,,,338.2351824999787,None,,,,,,,,,,,,,,,,,,,,,,,,,,,,,,,,,,,,,,,,339.50913110002875,339.81255159992725,339.85476929997094,340.1594118999783,340.2016794999363,340.5037535999436,340.5037535999436,340.8051823999267,340.854977699928,341.15943220001645,341.20181519992184,341.5012765999418,341.5012765999418,341.8050670999801,341.854257299914,342.1595318999607,342.20171169994865,342.50697999994736,342.5006861999864,342.8051714999601,342.8545245999703,343.15974319993984,343.20982150000054,None,,,,,99,001,2020_Dec_09_1512,new_STLI_practise,2020.2.10,143.78496670293111,
LZ_noise\LZ_noise_84.jpg,LZ_noise\LZ_noise_37.jpg,LZ_noise\LZ_noise_158.jpg,LZ_noise\LZ_noise_161.jpg,LZ_noise\LZ_noise_5.jpg,LZ_noise\LZ_noise_143.jpg,LZ_noise\LZ_noise_108.jpg,LZ_noise\LZ_noise_83.jpg,LZ_noise\LZ_noise_38.jpg,LZ_noise\LZ_noise_99.jpg,LZ_noise\LZ_noise_34.jpg,LZ_noise\LZ_noise_30.jpg,     ,     ,     ,     ,3,LZ_noise\LZ_noise_83.jpg,LZ_noise\LZ_noise_99.jpg,LZ_noise\LZ_noise_89.jpg,LZ_noise\LZ_noise_205.jpg,    z,3,33,,,,,,,,,,,,,,,,,,,,,,,,,,,,,,,,,0,14,14,14,,,,,,,,,,,,,,,,,,,,,,,,,343.3144562999951,344.3272879999131,344.3145362000214,None,344.3145362000214,None,344.3145362000214,None,344.3145362000214,None,m,0,1.2165676000295207,1.0076447698520496,None,,,,,,,,,,,,,,,,,,,,,,,,,,,,,,,,,,,,,,,,,,,,,99,001,2020_Dec_09_1512,new_STLI_practise,2020.2.10,143.78496670293111,
,,,,,,,,,,,,,,,,,,,,,,,,,,,,,,,,,,,,,,,,,,,,,,,,,,,,,,,,,,,,,,,,,,,,,,,,,,,,,,,,,,,,,,,,,,,,,,,,,,,,,,,,,,,,,,,,,,,,,,,,,,,,,,,,,,,,,,,,,,,345.55000409996137,None,347.02091640001163,None,,,,,,,
