imageone,imagetwo,imagethree,imagefour,imagefive,imagesix,imageseven,imageeight,imagenine,imageten,imageeleven,imagetwelve,imagethirteen,imagefourteen,imagefifteen,imagesixteen,frequency,choice_image,choice_type,correct_answer,stimulus_type,condition_code,block_one.thisRepN,block_one.thisTrialN,block_one.thisN,block_one.thisIndex,fone_control_b1.thisRepN,fone_control_b1.thisTrialN,fone_control_b1.thisN,fone_control_b1.thisIndex,ftwo_control_b1.thisRepN,ftwo_control_b1.thisTrialN,ftwo_control_b1.thisN,ftwo_control_b1.thisIndex,fthree_control_b1.thisRepN,fthree_control_b1.thisTrialN,fthree_control_b1.thisN,fthree_control_b1.thisIndex,text.started,text.stopped,Crossm.started,Crossm.stopped,Presentation_image_f1_1.started,Presentation_image_f1_1.stopped,Presentation_image_f1_2.started,Presentation_image_f1_2.stopped,Presentation_image_f1_3.started,Presentation_image_f1_3.stopped,Presentation_image_f1_4.started,Presentation_image_f1_4.stopped,Fixation_cross.started,Fixation_cross.stopped,displayed_choice_image.started,displayed_choice_image.stopped,key_resp.keys,key_resp.corr,key_resp.rt,key_resp.started,key_resp.stopped,Presentation_image_f2_1.started,Presentation_image_f2_1.stopped,Presentation_image_f2_2.started,Presentation_image_f2_2.stopped,Presentation_image_f2_3.started,Presentation_image_f2_3.stopped,Presentation_image_f2_4.started,Presentation_image_f2_4.stopped,Presentation_image_f2_5.started,Presentation_image_f2_5.stopped,Presentation_image_f2_6.started,Presentation_image_f2_6.stopped,Presentation_image_f2_7.started,Presentation_image_f2_7.stopped,Presentation_image_f2_8.started,Presentation_image_f2_8.stopped,Presentation_image_f3_1.started,Presentation_image_f3_1.stopped,Presentation_image_f3_2.started,Presentation_image_f3_2.stopped,Presentation_image_f3_3.started,Presentation_image_f3_3.stopped,Presentation_image_f3_4.started,Presentation_image_f3_4.stopped,Presentation_image_f3_5.started,Presentation_image_f3_5.stopped,Presentation_image_f3_6.started,Presentation_image_f3_6.stopped,Presentation_image_f3_7.started,Presentation_image_f3_7.stopped,Presentation_image_f3_8.started,Presentation_image_f3_8.stopped,Presentation_image_f3_9.started,Presentation_image_f3_9.stopped,Presentation_image_f3_10.started,Presentation_image_f3_10.stopped,Presentation_image_f3_11.started,Presentation_image_f3_11.stopped,Presentation_image_f3_12.started,Presentation_image_f3_12.stopped,participant,session,date,expName,psychopyVersion,frameRate,
LZ_natural\LZ_natural_191.jpg,LZ_natural\LZ_natural_103.jpg,LZ_natural\LZ_natural_43.jpg,LZ_natural\LZ_natural_142.jpg,None,None,None,None,None,None,None,None,None,None,None,None,1,LZ_natural\LZ_natural_103.jpg,1,a,1,11,0,0,0,0,0,0,0,0,,,,,,,,,7.614515900000697,None,8.445721199997934,None,9.463147599977674,10.463955999992322,10.463955999992322,11.464841999986675,11.464841999986675,12.465618199988967,12.465618199988967,None,,,,,,,,,,,,,,,,,,,,,,,,,,,,,,,,,,,,,,,,,,,,,,,,,,,001,2020_Dec_16_1504,new_STLI_practise,2020.2.10,59.95998271344724,
LZ_natural\LZ_natural_191.jpg,LZ_natural\LZ_natural_103.jpg,LZ_natural\LZ_natural_43.jpg,LZ_natural\LZ_natural_142.jpg,None,None,None,None,None,None,None,None,None,None,None,None,1,LZ_natural\LZ_natural_103.jpg,1,a,1,11,0,0,0,0,,,,,,,,,,,,,,,,,,,,,,,,,13.433171299984679,14.433973999985028,14.433973999985028,None,a,1,0.3736374000145588,1.0112097899836954,None,,,,,,,,,,,,,,,,,,,,,,,,,,,,,,,,,,,,,,,,,,001,2020_Dec_16_1504,new_STLI_practise,2020.2.10,59.95998271344724,
LZ_natural\LZ_natural_230.jpg,LZ_natural\LZ_natural_122.jpg,LZ_natural\LZ_natural_220.jpg,LZ_natural\LZ_natural_155.jpg,None,None,None,None,None,None,None,None,None,None,None,None,1,LZ_natural\LZ_natural_122.jpg,1,a,1,11,0,1,1,1,0,0,0,0,,,,,,,,,,,14.834317699976964,None,15.835156099987216,16.836000399984187,16.836000399984187,17.83678630000213,17.82012069999473,18.820951799978502,18.820951799978502,None,,,,,,,,,,,,,,,,,,,,,,,,,,,,,,,,,,,,,,,,,,,,,,,,,,,001,2020_Dec_16_1504,new_STLI_practise,2020.2.10,59.95998271344724,
LZ_natural\LZ_natural_230.jpg,LZ_natural\LZ_natural_122.jpg,LZ_natural\LZ_natural_220.jpg,LZ_natural\LZ_natural_155.jpg,None,None,None,None,None,None,None,None,None,None,None,None,1,LZ_natural\LZ_natural_122.jpg,1,a,1,11,0,1,1,1,,,,,,,,,,,,,,,,,,,,,,,,,19.821744799992302,20.82258829998318,20.80587359998026,None,a,1,0.672224499983713,1.00321518999408,None,,,,,,,,,,,,,,,,,,,,,,,,,,,,,,,,,,,,,,,,,,001,2020_Dec_16_1504,new_STLI_practise,2020.2.10,59.95998271344724,
LZ_natural\LZ_natural_102.jpg,LZ_natural\LZ_natural_164.jpg,LZ_natural\LZ_natural_63.jpg,LZ_natural\LZ_natural_2.jpg,None,None,None,None,None,None,None,None,None,None,None,None,1,LZ_natural\LZ_natural_102.jpg,1,a,1,11,0,2,2,2,0,0,0,0,,,,,,,,,,,21.506481899996288,None,22.507354200002737,23.50811729999259,23.49142559999018,24.492260400002124,24.492260400002124,25.493078999978025,25.493078999978025,None,,,,,,,,,,,,,,,,,,,,,,,,,,,,,,,,,,,,,,,,,,,,,,,,,,,001,2020_Dec_16_1504,new_STLI_practise,2020.2.10,59.95998271344724,
LZ_natural\LZ_natural_102.jpg,LZ_natural\LZ_natural_164.jpg,LZ_natural\LZ_natural_63.jpg,LZ_natural\LZ_natural_2.jpg,None,None,None,None,None,None,None,None,None,None,None,None,1,LZ_natural\LZ_natural_102.jpg,1,a,1,11,0,2,2,2,,,,,,,,,,,,,,,,,,,,,,,,,26.493909999990137,27.494736799999373,27.47805039997911,None,a,1,0.8426169999875128,1.0070715900219511,None,,,,,,,,,,,,,,,,,,,,,,,,,,,,,,,,,,,,,,,,,,001,2020_Dec_16_1504,new_STLI_practise,2020.2.10,59.95998271344724,
LZ_natural\LZ_natural_158.jpg,LZ_natural\LZ_natural_83.jpg,LZ_natural\LZ_natural_187.jpg,LZ_natural\LZ_natural_123.jpg,None,None,None,None,None,None,None,None,None,None,None,None,1,LZ_natural\LZ_natural_83.jpg,1,a,1,11,0,3,3,3,0,0,0,0,,,,,,,,,,,28.345418099983362,None,29.3629078999802,30.36377339999308,30.347082899999805,31.347873699996853,31.347873699996853,32.34869699997944,32.34869699997944,None,,,,,,,,,,,,,,,,,,,,,,,,,,,,,,,,,,,,,,,,,,,,,,,,,,,001,2020_Dec_16_1504,new_STLI_practise,2020.2.10,59.95998271344724,
LZ_natural\LZ_natural_158.jpg,LZ_natural\LZ_natural_83.jpg,LZ_natural\LZ_natural_187.jpg,LZ_natural\LZ_natural_123.jpg,None,None,None,None,None,None,None,None,None,None,None,None,1,LZ_natural\LZ_natural_83.jpg,1,a,1,11,0,3,3,3,,,,,,,,,,,,,,,,,,,,,,,,,33.349520799994934,34.35068209999008,34.33366429997841,None,a,1,0.6238986999960616,1.008557689958252,None,,,,,,,,,,,,,,,,,,,,,,,,,,,,,,,,,,,,,,,,,,001,2020_Dec_16_1504,new_STLI_practise,2020.2.10,59.95998271344724,
LZ_natural\LZ_natural_111.jpg,LZ_natural\LZ_natural_192.jpg,LZ_natural\LZ_natural_170.jpg,LZ_natural\LZ_natural_154.jpg,None,None,None,None,None,None,None,None,None,None,None,None,1,LZ_natural\LZ_natural_8.jpg,0,l,1,11,0,4,4,4,0,0,0,0,,,,,,,,,,,34.98419339998509,None,35.98501809997833,36.9858711999841,36.9858711999841,37.98667660000501,37.98667660000501,38.98748449998675,38.98748449998675,None,,,,,,,,,,,,,,,,,,,,,,,,,,,,,,,,,,,,,,,,,,,,,,,,,,,001,2020_Dec_16_1504,new_STLI_practise,2020.2.10,59.95998271344724,
LZ_natural\LZ_natural_111.jpg,LZ_natural\LZ_natural_192.jpg,LZ_natural\LZ_natural_170.jpg,LZ_natural\LZ_natural_154.jpg,None,None,None,None,None,None,None,None,None,None,None,None,1,LZ_natural\LZ_natural_8.jpg,0,l,1,11,0,4,4,4,,,,,,,,,,,,,,,,,,,,,,,,,39.98830979998456,40.98909119999735,40.97243609998259,None,l,1,1.0893396000028588,1.0084008900157642,None,,,,,,,,,,,,,,,,,,,,,,,,,,,,,,,,,,,,,,,,,,001,2020_Dec_16_1504,new_STLI_practise,2020.2.10,59.95998271344724,
LZ_natural\LZ_natural_235.jpg,LZ_natural\LZ_natural_15.jpg,LZ_natural\LZ_natural_38.jpg,LZ_natural\LZ_natural_47.jpg,None,None,None,None,None,None,None,None,None,None,None,None,1,LZ_natural\LZ_natural_141.jpg,0,l,1,11,0,5,5,5,0,0,0,0,,,,,,,,,,,42.090064399992116,None,43.09078889997909,44.091646199987736,44.074984299979405,45.07581589999609,45.07581589999609,46.076606699993135,46.076606699993135,None,,,,,,,,,,,,,,,,,,,,,,,,,,,,,,,,,,,,,,,,,,,,,,,,,,,001,2020_Dec_16_1504,new_STLI_practise,2020.2.10,59.95998271344724,
LZ_natural\LZ_natural_235.jpg,LZ_natural\LZ_natural_15.jpg,LZ_natural\LZ_natural_38.jpg,LZ_natural\LZ_natural_47.jpg,None,None,None,None,None,None,None,None,None,None,None,None,1,LZ_natural\LZ_natural_141.jpg,0,l,1,11,0,5,5,5,,,,,,,,,,,,,,,,,,,,,,,,,47.07743789997767,48.07826149999164,48.06164909998188,None,l,1,0.46680920000653714,1.008248789992649,None,,,,,,,,,,,,,,,,,,,,,,,,,,,,,,,,,,,,,,,,,,001,2020_Dec_16_1504,new_STLI_practise,2020.2.10,59.95998271344724,
LZ_natural\LZ_natural_52.jpg,LZ_natural\LZ_natural_156.jpg,LZ_natural\LZ_natural_50.jpg,LZ_natural\LZ_natural_183.jpg,LZ_natural\LZ_natural_193.jpg,LZ_natural\LZ_natural_18.jpg,LZ_natural\LZ_natural_148.jpg,LZ_natural\LZ_natural_217.jpg,None,None,None,None,None,None,None,None,2,LZ_natural\LZ_natural_18.jpg,1,a,1,12,0,6,6,6,,,,,0,0,0,0,,,,,,,48.54531610000413,None,,,,,,,,,,,,,,,,,,49.62953799997922,50.079909599997336,50.113267099979566,50.56359710000106,50.61367329998757,51.06402530000196,51.11408919998212,51.564473699982045,51.61447529998259,52.06486069998937,52.11490739998408,52.565275699977065,52.615289999987,53.06567989999894,53.11572519998299,None,,,,,,,,,,,,,,,,,,,,,,,,,,001,2020_Dec_16_1504,new_STLI_practise,2020.2.10,59.95998271344724,
LZ_natural\LZ_natural_52.jpg,LZ_natural\LZ_natural_156.jpg,LZ_natural\LZ_natural_50.jpg,LZ_natural\LZ_natural_183.jpg,LZ_natural\LZ_natural_193.jpg,LZ_natural\LZ_natural_18.jpg,LZ_natural\LZ_natural_148.jpg,LZ_natural\LZ_natural_217.jpg,None,None,None,None,None,None,None,None,2,LZ_natural\LZ_natural_18.jpg,1,a,1,12,0,6,6,6,,,,,,,,,,,,,,,,,,,,,,,,,53.51606529997662,54.516852000000654,54.50022479999461,None,a,1,1.0180432999914046,1.0095950899994932,None,,,,,,,,,,,,,,,,,,,,,,,,,,,,,,,,,,,,,,,,,,001,2020_Dec_16_1504,new_STLI_practise,2020.2.10,59.95998271344724,
LZ_natural\LZ_natural_204.jpg,LZ_natural\LZ_natural_74.jpg,LZ_natural\LZ_natural_98.jpg,LZ_natural\LZ_natural_136.jpg,LZ_natural\LZ_natural_229.jpg,LZ_natural\LZ_natural_94.jpg,LZ_natural\LZ_natural_19.jpg,LZ_natural\LZ_natural_134.jpg,None,None,None,None,None,None,None,None,2,LZ_natural\LZ_natural_204.jpg,1,a,1,12,0,7,7,7,,,,,0,0,0,0,,,,,,,55.53438009999809,None,,,,,,,,,,,,,,,,,,56.5522075999761,57.00224549998529,57.01892699999735,57.469284199993126,57.51933310000459,57.969699399982346,58.019728799990844,58.470085499982815,58.52012439997634,58.97052659999463,59.020575300004566,59.470888199983165,59.52097889999277,59.97134389998973,60.021380899997894,None,,,,,,,,,,,,,,,,,,,,,,,,,,001,2020_Dec_16_1504,new_STLI_practise,2020.2.10,59.95998271344724,
LZ_natural\LZ_natural_204.jpg,LZ_natural\LZ_natural_74.jpg,LZ_natural\LZ_natural_98.jpg,LZ_natural\LZ_natural_136.jpg,LZ_natural\LZ_natural_229.jpg,LZ_natural\LZ_natural_94.jpg,LZ_natural\LZ_natural_19.jpg,LZ_natural\LZ_natural_134.jpg,None,None,None,None,None,None,None,None,2,LZ_natural\LZ_natural_204.jpg,1,a,1,12,0,7,7,7,,,,,,,,,,,,,,,,,,,,,,,,,60.47177049997845,61.47260159999132,61.45590269999229,None,a,1,0.7795588999870233,1.0072382900107186,None,,,,,,,,,,,,,,,,,,,,,,,,,,,,,,,,,,,,,,,,,,001,2020_Dec_16_1504,new_STLI_practise,2020.2.10,59.95998271344724,
LZ_natural\LZ_natural_55.jpg,LZ_natural\LZ_natural_116.jpg,LZ_natural\LZ_natural_26.jpg,LZ_natural\LZ_natural_77.jpg,LZ_natural\LZ_natural_11.jpg,LZ_natural\LZ_natural_14.jpg,LZ_natural\LZ_natural_207.jpg,LZ_natural\LZ_natural_140.jpg,None,None,None,None,None,None,None,None,2,LZ_natural\LZ_natural_60.jpg,0,l,1,12,0,8,8,8,,,,,0,0,0,0,,,,,,,62.25656889998936,None,,,,,,,,,,,,,,,,,,63.2740511999873,63.72443459997885,63.75777169998037,64.20820639998419,64.24154329998419,64.691840399988,64.7419430000009,65.19288279998,65.24235600000247,65.6926986000035,65.74274779998814,66.19311049999669,66.24317519998294,66.69352169998456,66.74350149999373,None,,,,,,,,,,,,,,,,,,,,,,,,,,001,2020_Dec_16_1504,new_STLI_practise,2020.2.10,59.95998271344724,
LZ_natural\LZ_natural_55.jpg,LZ_natural\LZ_natural_116.jpg,LZ_natural\LZ_natural_26.jpg,LZ_natural\LZ_natural_77.jpg,LZ_natural\LZ_natural_11.jpg,LZ_natural\LZ_natural_14.jpg,LZ_natural\LZ_natural_207.jpg,LZ_natural\LZ_natural_140.jpg,None,None,None,None,None,None,None,None,2,LZ_natural\LZ_natural_60.jpg,0,l,1,12,0,8,8,8,,,,,,,,,,,,,,,,,,,,,,,,,67.19394699999248,68.19474599999376,68.17807409999659,None,l,1,0.5913817000109702,1.0060742899950128,None,,,,,,,,,,,,,,,,,,,,,,,,,,,,,,,,,,,,,,,,,,001,2020_Dec_16_1504,new_STLI_practise,2020.2.10,59.95998271344724,
LZ_natural\LZ_natural_62.jpg,LZ_natural\LZ_natural_58.jpg,LZ_natural\LZ_natural_175.jpg,LZ_natural\LZ_natural_208.jpg,LZ_natural\LZ_natural_233.jpg,LZ_natural\LZ_natural_218.jpg,LZ_natural\LZ_natural_127.jpg,LZ_natural\LZ_natural_234.jpg,None,None,None,None,None,None,None,None,2,LZ_natural\LZ_natural_62.jpg,1,a,1,12,0,9,9,9,,,,,0,0,0,0,,,,,,,68.79524799998035,None,,,,,,,,,,,,,,,,,,69.8127639000013,70.26312560000224,70.29648429999361,70.7468411999871,70.79689509997843,71.24725729998318,71.29730019997805,71.74765969999135,71.7810318999982,72.23139770000125,72.28144930000417,72.731819299981,72.78180139997858,73.23222539998824,73.28226569999242,None,,,,,,,,,,,,,,,,,,,,,,,,,,001,2020_Dec_16_1504,new_STLI_practise,2020.2.10,59.95998271344724,
LZ_natural\LZ_natural_62.jpg,LZ_natural\LZ_natural_58.jpg,LZ_natural\LZ_natural_175.jpg,LZ_natural\LZ_natural_208.jpg,LZ_natural\LZ_natural_233.jpg,LZ_natural\LZ_natural_218.jpg,LZ_natural\LZ_natural_127.jpg,LZ_natural\LZ_natural_234.jpg,None,None,None,None,None,None,None,None,2,LZ_natural\LZ_natural_62.jpg,1,a,1,12,0,9,9,9,,,,,,,,,,,,,,,,,,,,,,,,,73.73263819998829,74.73345139998128,74.71680599998217,None,a,1,1.3635927000141237,1.0024249900016002,None,,,,,,,,,,,,,,,,,,,,,,,,,,,,,,,,,,,,,,,,,,001,2020_Dec_16_1504,new_STLI_practise,2020.2.10,59.95998271344724,
LZ_natural\LZ_natural_237.jpg,LZ_natural\LZ_natural_227.jpg,LZ_natural\LZ_natural_44.jpg,LZ_natural\LZ_natural_88.jpg,LZ_natural\LZ_natural_13.jpg,LZ_natural\LZ_natural_186.jpg,LZ_natural\LZ_natural_180.jpg,LZ_natural\LZ_natural_109.jpg,None,None,None,None,None,None,None,None,2,LZ_natural\LZ_natural_90.jpg,0,l,1,12,0,10,10,10,,,,,0,0,0,0,,,,,,,76.10119429999031,None,,,,,,,,,,,,,,,,,,77.11874750000425,77.56910409999546,77.585797799984,78.03615410000202,78.08620199997677,78.53655609997804,78.58663439998054,79.03697289997945,79.0870582999778,79.53742549999151,79.58743069999036,80.03785979998065,80.08784140000353,80.53821519998019,80.58823529997608,None,,,,,,,,,,,,,,,,,,,,,,,,,,001,2020_Dec_16_1504,new_STLI_practise,2020.2.10,59.95998271344724,
LZ_natural\LZ_natural_237.jpg,LZ_natural\LZ_natural_227.jpg,LZ_natural\LZ_natural_44.jpg,LZ_natural\LZ_natural_88.jpg,LZ_natural\LZ_natural_13.jpg,LZ_natural\LZ_natural_186.jpg,LZ_natural\LZ_natural_180.jpg,LZ_natural\LZ_natural_109.jpg,None,None,None,None,None,None,None,None,2,LZ_natural\LZ_natural_90.jpg,0,l,1,12,0,10,10,10,,,,,,,,,,,,,,,,,,,,,,,,,81.03864459999022,82.03943579999031,82.02272739997716,None,l,1,0.6025182000012137,1.00462409001193,None,,,,,,,,,,,,,,,,,,,,,,,,,,,,,,,,,,,,,,,,,,001,2020_Dec_16_1504,new_STLI_practise,2020.2.10,59.95998271344724,
LZ_natural\LZ_natural_3.jpg,LZ_natural\LZ_natural_92.jpg,LZ_natural\LZ_natural_40.jpg,LZ_natural\LZ_natural_236.jpg,LZ_natural\LZ_natural_23.jpg,LZ_natural\LZ_natural_223.jpg,LZ_natural\LZ_natural_232.jpg,LZ_natural\LZ_natural_42.jpg,None,None,None,None,None,None,None,None,2,LZ_natural\LZ_natural_236.jpg,1,a,1,12,0,11,11,11,,,,,0,0,0,0,,,,,,,82.65661059998092,None,,,,,,,,,,,,,,,,,,83.67412660000264,84.12447119998978,84.1411866999988,84.59154039999703,84.6415822999843,85.09190359999775,85.14196979999542,85.59235039999476,85.64240339997923,86.09275719997822,86.14279059998807,86.59316849999595,86.64321889998973,87.09359099998255,87.14363259999664,None,,,,,,,,,,,,,,,,,,,,,,,,,,001,2020_Dec_16_1504,new_STLI_practise,2020.2.10,59.95998271344724,
LZ_natural\LZ_natural_3.jpg,LZ_natural\LZ_natural_92.jpg,LZ_natural\LZ_natural_40.jpg,LZ_natural\LZ_natural_236.jpg,LZ_natural\LZ_natural_23.jpg,LZ_natural\LZ_natural_223.jpg,LZ_natural\LZ_natural_232.jpg,LZ_natural\LZ_natural_42.jpg,None,None,None,None,None,None,None,None,2,LZ_natural\LZ_natural_236.jpg,1,a,1,12,0,11,11,11,,,,,,,,,,,,,,,,,,,,,,,,,87.59397399998852,88.59483739998541,88.5781223999802,None,l,0,0.7811507000005804,1.0058990900288336,None,,,,,,,,,,,,,,,,,,,,,,,,,,,,,,,,,,,,,,,,,,001,2020_Dec_16_1504,new_STLI_practise,2020.2.10,59.95998271344724,
LZ_natural\LZ_natural_165.jpg,LZ_natural\LZ_natural_24.jpg,LZ_natural\LZ_natural_79.jpg,LZ_natural\LZ_natural_147.jpg,LZ_natural\LZ_natural_100.jpg,LZ_natural\LZ_natural_205.jpg,LZ_natural\LZ_natural_196.jpg,LZ_natural\LZ_natural_143.jpg,LZ_natural\LZ_natural_177.jpg,LZ_natural\LZ_natural_65.jpg,LZ_natural\LZ_natural_190.jpg,LZ_natural\LZ_natural_124.jpg,None,None,None,None,3,LZ_natural\LZ_natural_105.jpg,0,l,1,13,0,12,12,12,,,,,,,,,0,0,0,0,,,89.37880289999885,None,,,,,,,,,,,,,,,,,,,,,,,,,,,,,,,,,,90.51349149999442,90.81330439998419,90.84665969997877,91.1468527999823,91.19696869998006,91.49719399999594,91.49719399999594,91.79743959999178,91.84744489999139,92.14773179998156,92.19873289999668,92.49799649999477,92.49799649999477,92.79827689999365,92.8315958000021,93.13187109999126,93.1819334999891,93.48214239999652,93.48214239999652,93.78239839998423,93.83244420000119,94.13268589999643,94.18270340000163,None,,001,2020_Dec_16_1504,new_STLI_practise,2020.2.10,59.95998271344724,
LZ_natural\LZ_natural_165.jpg,LZ_natural\LZ_natural_24.jpg,LZ_natural\LZ_natural_79.jpg,LZ_natural\LZ_natural_147.jpg,LZ_natural\LZ_natural_100.jpg,LZ_natural\LZ_natural_205.jpg,LZ_natural\LZ_natural_196.jpg,LZ_natural\LZ_natural_143.jpg,LZ_natural\LZ_natural_177.jpg,LZ_natural\LZ_natural_65.jpg,LZ_natural\LZ_natural_190.jpg,LZ_natural\LZ_natural_124.jpg,None,None,None,None,3,LZ_natural\LZ_natural_105.jpg,0,l,1,13,0,12,12,12,,,,,,,,,,,,,,,,,,,,,,,,,94.39957919999142,95.40040610000142,95.38375879998785,None,l,1,0.5975750999932643,1.0085653900168836,None,,,,,,,,,,,,,,,,,,,,,,,,,,,,,,,,,,,,,,,,,,001,2020_Dec_16_1504,new_STLI_practise,2020.2.10,59.95998271344724,
LZ_natural\LZ_natural_21.jpg,LZ_natural\LZ_natural_225.jpg,LZ_natural\LZ_natural_199.jpg,LZ_natural\LZ_natural_145.jpg,LZ_natural\LZ_natural_48.jpg,LZ_natural\LZ_natural_68.jpg,LZ_natural\LZ_natural_182.jpg,LZ_natural\LZ_natural_76.jpg,LZ_natural\LZ_natural_16.jpg,LZ_natural\LZ_natural_34.jpg,LZ_natural\LZ_natural_221.jpg,LZ_natural\LZ_natural_215.jpg,None,None,None,None,3,LZ_natural\LZ_natural_48.jpg,1,a,1,13,0,13,13,13,,,,,,,,,0,0,0,0,,,96.00090819998877,None,,,,,,,,,,,,,,,,,,,,,,,,,,,,,,,,,,97.01838659998612,97.31862469998305,97.35196899998118,97.65225109999301,97.7022812999785,98.00253030000022,98.00253030000022,98.30276849999791,98.3528136999812,98.65306969999801,98.70305179999559,99.00335899999482,99.00335899999482,99.30360299997847,99.3536692999769,99.65384479999193,99.70395409999765,100.00414119998459,100.00414119998459,100.30441589999828,100.35442079999484,100.65467319998425,100.70475789997727,None,,001,2020_Dec_16_1504,new_STLI_practise,2020.2.10,59.95998271344724,
LZ_natural\LZ_natural_21.jpg,LZ_natural\LZ_natural_225.jpg,LZ_natural\LZ_natural_199.jpg,LZ_natural\LZ_natural_145.jpg,LZ_natural\LZ_natural_48.jpg,LZ_natural\LZ_natural_68.jpg,LZ_natural\LZ_natural_182.jpg,LZ_natural\LZ_natural_76.jpg,LZ_natural\LZ_natural_16.jpg,LZ_natural\LZ_natural_34.jpg,LZ_natural\LZ_natural_221.jpg,LZ_natural\LZ_natural_215.jpg,None,None,None,None,3,LZ_natural\LZ_natural_48.jpg,1,a,1,13,0,13,13,13,,,,,,,,,,,,,,,,,,,,,,,,,101.0049880000006,102.00580439998885,101.98913800000446,None,l,0,0.7204021000070497,1.004888289986411,None,,,,,,,,,,,,,,,,,,,,,,,,,,,,,,,,,,,,,,,,,,001,2020_Dec_16_1504,new_STLI_practise,2020.2.10,59.95998271344724,
LZ_natural\LZ_natural_5.jpg,LZ_natural\LZ_natural_216.jpg,LZ_natural\LZ_natural_12.jpg,LZ_natural\LZ_natural_146.jpg,LZ_natural\LZ_natural_32.jpg,LZ_natural\LZ_natural_138.jpg,LZ_natural\LZ_natural_28.jpg,LZ_natural\LZ_natural_6.jpg,LZ_natural\LZ_natural_219.jpg,LZ_natural\LZ_natural_201.jpg,LZ_natural\LZ_natural_72.jpg,LZ_natural\LZ_natural_228.jpg,None,None,None,None,3,LZ_natural\LZ_natural_171.jpg,0,l,1,13,0,14,14,14,,,,,,,,,0,0,0,0,,,102.73975320000318,None,,,,,,,,,,,,,,,,,,,,,,,,,,,,,,,,,,103.75724939999054,104.05750209998223,104.09086319999187,104.39112049998948,104.44110939998063,104.74149990000296,104.74149990000296,105.04164680000395,105.09168529999442,105.39193159999559,105.4419646000024,105.74221019999823,105.74221019999823,106.04245249999803,106.09249690000433,106.39274979999755,106.44278620000114,106.74299949998385,106.74299949998385,107.04326330000185,107.09336959998473,107.3936036999803,107.44361159999971,None,,001,2020_Dec_16_1504,new_STLI_practise,2020.2.10,59.95998271344724,
LZ_natural\LZ_natural_5.jpg,LZ_natural\LZ_natural_216.jpg,LZ_natural\LZ_natural_12.jpg,LZ_natural\LZ_natural_146.jpg,LZ_natural\LZ_natural_32.jpg,LZ_natural\LZ_natural_138.jpg,LZ_natural\LZ_natural_28.jpg,LZ_natural\LZ_natural_6.jpg,LZ_natural\LZ_natural_219.jpg,LZ_natural\LZ_natural_201.jpg,LZ_natural\LZ_natural_72.jpg,LZ_natural\LZ_natural_228.jpg,None,None,None,None,3,LZ_natural\LZ_natural_171.jpg,0,l,1,13,0,14,14,14,,,,,,,,,,,,,,,,,,,,,,,,,107.74385179998353,108.74468969998998,108.7279929999786,None,l,1,0.7785666999989189,1.009560690028593,None,,,,,,,,,,,,,,,,,,,,,,,,,,,,,,,,,,,,,,,,,,001,2020_Dec_16_1504,new_STLI_practise,2020.2.10,59.95998271344724,
LZ_natural\LZ_natural_184.jpg,LZ_natural\LZ_natural_120.jpg,LZ_natural\LZ_natural_161.jpg,LZ_natural\LZ_natural_133.jpg,LZ_natural\LZ_natural_53.jpg,LZ_natural\LZ_natural_71.jpg,LZ_natural\LZ_natural_37.jpg,LZ_natural\LZ_natural_149.jpg,LZ_natural\LZ_natural_132.jpg,LZ_natural\LZ_natural_101.jpg,LZ_natural\LZ_natural_56.jpg,LZ_natural\LZ_natural_54.jpg,None,None,None,None,3,LZ_natural\LZ_natural_100.jpg,0,l,1,13,0,15,15,15,,,,,,,,,0,0,0,0,,,109.52868970000418,None,,,,,,,,,,,,,,,,,,,,,,,,,,,,,,,,,,110.54610999999568,110.84639079999761,110.87975629998255,111.17997969998396,111.23004169997876,111.53028069998254,111.53028069998254,111.83054579998134,111.88058009999804,112.18082259999937,112.23083970000152,112.53110939997714,112.53110939997714,112.83139289999963,112.88140129999374,113.18164369999431,113.23168259998783,113.53192829998443,113.53192829998443,113.83217169999261,113.88221969999722,114.18245150000439,114.23250919999555,None,,001,2020_Dec_16_1504,new_STLI_practise,2020.2.10,59.95998271344724,
LZ_natural\LZ_natural_184.jpg,LZ_natural\LZ_natural_120.jpg,LZ_natural\LZ_natural_161.jpg,LZ_natural\LZ_natural_133.jpg,LZ_natural\LZ_natural_53.jpg,LZ_natural\LZ_natural_71.jpg,LZ_natural\LZ_natural_37.jpg,LZ_natural\LZ_natural_149.jpg,LZ_natural\LZ_natural_132.jpg,LZ_natural\LZ_natural_101.jpg,LZ_natural\LZ_natural_56.jpg,LZ_natural\LZ_natural_54.jpg,None,None,None,None,3,LZ_natural\LZ_natural_100.jpg,0,l,1,13,0,15,15,15,,,,,,,,,,,,,,,,,,,,,,,,,114.53277160000289,115.53359079998336,115.51691429998027,None,l,1,0.6082064000074752,1.0046594899904449,None,,,,,,,,,,,,,,,,,,,,,,,,,,,,,,,,,,,,,,,,,,001,2020_Dec_16_1504,new_STLI_practise,2020.2.10,59.95998271344724,
LZ_natural\LZ_natural_126.jpg,LZ_natural\LZ_natural_17.jpg,LZ_natural\LZ_natural_239.jpg,LZ_natural\LZ_natural_107.jpg,LZ_natural\LZ_natural_169.jpg,LZ_natural\LZ_natural_188.jpg,LZ_natural\LZ_natural_115.jpg,LZ_natural\LZ_natural_176.jpg,LZ_natural\LZ_natural_153.jpg,LZ_natural\LZ_natural_4.jpg,LZ_natural\LZ_natural_36.jpg,LZ_natural\LZ_natural_67.jpg,None,None,None,None,3,LZ_natural\LZ_natural_178.jpg,0,l,1,13,0,16,16,16,,,,,,,,,0,0,0,0,,,116.15078029999859,None,,,,,,,,,,,,,,,,,,,,,,,,,,,,,,,,,,117.16820479999296,117.46851979999337,117.50184620000073,117.80209549999563,117.85212850000244,118.15236009997898,118.15236009997898,118.45266899999115,118.50271000000066,118.80290209999657,118.85294819998671,119.15323649998754,119.15323649998754,119.45348179998109,119.50352489997749,119.80373260000488,119.85381139998208,120.15399299998535,120.15399299998535,120.45427459999337,120.50431369998842,120.80454479999025,120.85454369999934,None,,001,2020_Dec_16_1504,new_STLI_practise,2020.2.10,59.95998271344724,
LZ_natural\LZ_natural_126.jpg,LZ_natural\LZ_natural_17.jpg,LZ_natural\LZ_natural_239.jpg,LZ_natural\LZ_natural_107.jpg,LZ_natural\LZ_natural_169.jpg,LZ_natural\LZ_natural_188.jpg,LZ_natural\LZ_natural_115.jpg,LZ_natural\LZ_natural_176.jpg,LZ_natural\LZ_natural_153.jpg,LZ_natural\LZ_natural_4.jpg,LZ_natural\LZ_natural_36.jpg,LZ_natural\LZ_natural_67.jpg,None,None,None,None,3,LZ_natural\LZ_natural_178.jpg,0,l,1,13,0,16,16,16,,,,,,,,,,,,,,,,,,,,,,,,,121.1548741000006,122.1556701999798,122.1556701999798,None,l,1,0.9402528000064194,0.9990457899984904,None,,,,,,,,,,,,,,,,,,,,,,,,,,,,,,,,,,,,,,,,,,001,2020_Dec_16_1504,new_STLI_practise,2020.2.10,59.95998271344724,
LZ_natural\LZ_natural_129.jpg,LZ_natural\LZ_natural_10.jpg,LZ_natural\LZ_natural_137.jpg,LZ_natural\LZ_natural_222.jpg,LZ_natural\LZ_natural_174.jpg,LZ_natural\LZ_natural_213.jpg,LZ_natural\LZ_natural_224.jpg,LZ_natural\LZ_natural_85.jpg,LZ_natural\LZ_natural_240.jpg,LZ_natural\LZ_natural_87.jpg,LZ_natural\LZ_natural_45.jpg,LZ_natural\LZ_natural_214.jpg,None,None,None,None,3,LZ_natural\LZ_natural_28.jpg,0,l,1,13,0,17,17,17,,,,,,,,,0,0,0,0,,,123.10647460000473,None,,,,,,,,,,,,,,,,,,,,,,,,,,,,,,,,,,124.12395219999598,124.42416659998707,124.45755069999723,124.75778799998807,124.8078375000041,125.10805019998224,125.10805019998224,125.40835029998561,125.4583597999881,125.75862189999316,125.80867319999379,126.10890679998556,126.10890679998556,126.40912619998562,126.45919709998998,126.75941030000104,126.8094508999784,127.10973199998261,127.10973199998261,127.40998719999334,127.4600140999828,127.76025500000105,127.8103266999824,None,,001,2020_Dec_16_1504,new_STLI_practise,2020.2.10,59.95998271344724,
LZ_natural\LZ_natural_129.jpg,LZ_natural\LZ_natural_10.jpg,LZ_natural\LZ_natural_137.jpg,LZ_natural\LZ_natural_222.jpg,LZ_natural\LZ_natural_174.jpg,LZ_natural\LZ_natural_213.jpg,LZ_natural\LZ_natural_224.jpg,LZ_natural\LZ_natural_85.jpg,LZ_natural\LZ_natural_240.jpg,LZ_natural\LZ_natural_87.jpg,LZ_natural\LZ_natural_45.jpg,LZ_natural\LZ_natural_214.jpg,None,None,None,None,3,LZ_natural\LZ_natural_28.jpg,0,l,1,13,0,17,17,17,,,,,,,,,,,,,,,,,,,,,,,,,128.1105573999812,129.1113669000042,129.09470560000045,None,l,1,1.2795306000043638,1.0054919900430832,None,,,,,,,,,,,,,,,,,,,,,,,,,,,,,,,,,,,,,,,,,,001,2020_Dec_16_1504,new_STLI_practise,2020.2.10,59.95998271344724,
