imageone,imagetwo,imagethree,imagefour,imagefive,imagesix,imageseven,imageeight,imagenine,imageten,imageeleven,imagetwelve,imagethirteen,imagefourteen,imagefifteen,imagesixteen,frequency,choice_image,choice_type,correct_answer,stimulus_type,condition_code,block_one.thisRepN,block_one.thisTrialN,block_one.thisN,block_one.thisIndex,fone_control_b1.thisRepN,fone_control_b1.thisTrialN,fone_control_b1.thisN,fone_control_b1.thisIndex,ftwo_control_b1.thisRepN,ftwo_control_b1.thisTrialN,ftwo_control_b1.thisN,ftwo_control_b1.thisIndex,fthree_control_b1.thisRepN,fthree_control_b1.thisTrialN,fthree_control_b1.thisN,fthree_control_b1.thisIndex,text.started,text.stopped,Crossm.started,Crossm.stopped,Presentation_image_f1_1.started,Presentation_image_f1_1.stopped,Presentation_image_f1_2.started,Presentation_image_f1_2.stopped,Presentation_image_f1_3.started,Presentation_image_f1_3.stopped,Presentation_image_f1_4.started,Presentation_image_f1_4.stopped,Fixation_cross.started,Fixation_cross.stopped,displayed_choice_image.started,displayed_choice_image.stopped,key_resp.keys,key_resp.corr,key_resp.rt,key_resp.started,key_resp.stopped,Presentation_image_f2_1.started,Presentation_image_f2_1.stopped,Presentation_image_f2_2.started,Presentation_image_f2_2.stopped,Presentation_image_f2_3.started,Presentation_image_f2_3.stopped,Presentation_image_f2_4.started,Presentation_image_f2_4.stopped,Presentation_image_f2_5.started,Presentation_image_f2_5.stopped,Presentation_image_f2_6.started,Presentation_image_f2_6.stopped,Presentation_image_f2_7.started,Presentation_image_f2_7.stopped,Presentation_image_f2_8.started,Presentation_image_f2_8.stopped,Presentation_image_f3_1.started,Presentation_image_f3_1.stopped,Presentation_image_f3_2.started,Presentation_image_f3_2.stopped,Presentation_image_f3_3.started,Presentation_image_f3_3.stopped,Presentation_image_f3_4.started,Presentation_image_f3_4.stopped,Presentation_image_f3_5.started,Presentation_image_f3_5.stopped,Presentation_image_f3_6.started,Presentation_image_f3_6.stopped,Presentation_image_f3_7.started,Presentation_image_f3_7.stopped,Presentation_image_f3_8.started,Presentation_image_f3_8.stopped,Presentation_image_f3_9.started,Presentation_image_f3_9.stopped,Presentation_image_f3_10.started,Presentation_image_f3_10.stopped,Presentation_image_f3_11.started,Presentation_image_f3_11.stopped,Presentation_image_f3_12.started,Presentation_image_f3_12.stopped,perf_review_accuracyval.started,perf_review_accuracyval.stopped,perf_key_resp_3.keys,perf_key_resp_3.rt,perf_key_resp_3.started,perf_key_resp_3.stopped,text_3.started,text_3.stopped,text_2.started,text_2.stopped,participant,session,date,expName,psychopyVersion,frameRate,
LZ_noise\LZ_noise_32.jpg,LZ_noise\LZ_noise_128.jpg,LZ_noise\LZ_noise_138.jpg,LZ_noise\LZ_noise_123.jpg,None,None,None,None,None,None,None,None,None,None,None,None,1,LZ_noise\LZ_noise_138.jpg,1,a,3,31,0,0,0,0,,,,,,,,,,,,,10.314316599979065,None,13.890889399976004,None,14.950381100003142,15.951948500005528,15.924734000000171,16.92432530003134,16.92432530003134,17.924353900016285,17.924353900016285,None,18.876367099990603,19.88358770002378,19.87727779999841,None,l,0,0.6173859999980778,0.9990245699300431,None,,,,,,,,,,,,,,,,,,,,,,,,,,,,,,,,,,,,,,,,,,,,,,,,,,,,001,2020_Dec_17_1700,new_STLI_practise_noise,2020.2.10,143.98537116263367,
LZ_noise\LZ_noise_7.jpg,LZ_noise\LZ_noise_22.jpg,LZ_noise\LZ_noise_120.jpg,LZ_noise\LZ_noise_172.jpg,None,None,None,None,None,None,None,None,None,None,None,None,1,LZ_noise\LZ_noise_174.jpg,0,l,3,31,0,1,1,1,,,,,,,,,,,,,,,20.501201100007165,None,21.539036399975885,22.542347599985078,22.535897199995816,23.53546709998045,23.53546709998045,24.535502700018696,24.535502700018696,None,25.516161300009117,26.523024199996144,26.507753900019452,None,l,1,0.4975294999894686,0.9996142399613746,None,,,,,,,,,,,,,,,,,,,,,,,,,,,,,,,,,,,,,,,,,,,,,,,,,,,,001,2020_Dec_17_1700,new_STLI_practise_noise,2020.2.10,143.98537116263367,
LZ_noise\LZ_noise_142.jpg,LZ_noise\LZ_noise_9.jpg,LZ_noise\LZ_noise_216.jpg,LZ_noise\LZ_noise_225.jpg,None,None,None,None,None,None,None,None,None,None,None,None,1,LZ_noise\LZ_noise_216.jpg,1,a,3,31,0,2,2,2,,,,,,,,,,,,,,,27.01874610001687,None,28.051284899993334,29.05630390002625,29.042976500000805,30.042552200029604,30.042552200029604,31.042515499982983,31.042515499982983,None,32.02332859998569,33.03059229999781,33.02197340002749,None,a,1,1.0714985000086017,1.0060385699616745,None,,,,,,,,,,,,,,,,,,,,,,,,,,,,,,,,,,,,,,,,,,,,,,,,,,,,001,2020_Dec_17_1700,new_STLI_practise_noise,2020.2.10,143.98537116263367,
LZ_noise\LZ_noise_97.jpg,LZ_noise\LZ_noise_92.jpg,LZ_noise\LZ_noise_82.jpg,LZ_noise\LZ_noise_223.jpg,None,None,None,None,None,None,None,None,None,None,None,None,1,LZ_noise\LZ_noise_97.jpg,1,a,3,31,0,3,3,3,,,,,,,,,,,,,,,34.101500699995086,None,35.14113170001656,36.139746300003026,36.13329219998559,37.132908100029454,37.132908100029454,38.13292360003106,38.13292360003106,None,39.10643420001725,40.11373380001169,40.105179200007115,None,l,0,0.7003415999934077,1.0059031700366177,None,,,,,,,,,,,,,,,,,,,,,,,,,,,,,,,,,,,,,,,,,,,,,,,,,,,,001,2020_Dec_17_1700,new_STLI_practise_noise,2020.2.10,143.98537116263367,
LZ_noise\LZ_noise_161.jpg,LZ_noise\LZ_noise_33.jpg,LZ_noise\LZ_noise_105.jpg,LZ_noise\LZ_noise_121.jpg,None,None,None,None,None,None,None,None,None,None,None,None,1,LZ_noise\LZ_noise_33.jpg,1,a,3,31,0,4,4,4,,,,,,,,,,,,,,,40.818838400009554,None,41.8516294999863,42.85510179999983,42.84862030000659,43.84825009998167,43.84825009998167,44.84828310000012,44.84828310000012,None,45.829409900004975,46.83657420001691,46.827472599979956,None,l,0,0.8739722999744117,1.0056263700244017,None,,,,,,,,,,,,,,,,,,,,,,,,,,,,,,,,,,,,,,,,,,,,,,,,,,,,001,2020_Dec_17_1700,new_STLI_practise_noise,2020.2.10,143.98537116263367,
LZ_noise\LZ_noise_99.jpg,LZ_noise\LZ_noise_207.jpg,LZ_noise\LZ_noise_154.jpg,LZ_noise\LZ_noise_170.jpg,None,None,None,None,None,None,None,None,None,None,None,None,1,LZ_noise\LZ_noise_154.jpg,1,a,3,31,0,5,5,5,,,,,,,,,,,,,,,47.71542810002575,None,48.746656799979974,49.751017300004605,49.74458070000401,50.744188599986956,50.744188599986956,51.74419170001056,51.74419170001056,None,52.725093899993226,53.73178909998387,53.72337199997855,None,a,1,0.8579370999941602,1.0059059700579382,None,,,,,,,,,,,,,,,,,,,,,,,,,,,,,,,,,,,,,,,,,,,,,,,,,,,,001,2020_Dec_17_1700,new_STLI_practise_noise,2020.2.10,143.98537116263367,
LZ_noise\LZ_noise_98.jpg,LZ_noise\LZ_noise_173.jpg,LZ_noise\LZ_noise_62.jpg,LZ_noise\LZ_noise_201.jpg,LZ_noise\LZ_noise_126.jpg,LZ_noise\LZ_noise_144.jpg,LZ_noise\LZ_noise_53.jpg,LZ_noise\LZ_noise_212.jpg,None,None,None,None,None,None,None,None,2,LZ_noise\LZ_noise_62.jpg,1,a,3,32,0,6,6,6,,,,,,,,,,,,,,,54.59593820001464,None,,,,,,,,,59.55155219999142,60.55879630002892,60.549875999975484,None,l,0,0.5990482000051998,1.00508107006317,None,55.69020710000768,56.13990690000355,56.18179449997842,56.632590499997605,56.68182800000068,57.132605999999214,57.182013700017706,57.63261540001258,57.6818400999764,58.13265709998086,58.18187149998266,58.63263770000776,58.68186469998909,59.13264030002756,59.181857699994,None,,,,,,,,,,,,,,,,,,,,,,,,,,,,,,,,,,,,001,2020_Dec_17_1700,new_STLI_practise_noise,2020.2.10,143.98537116263367,
LZ_noise\LZ_noise_79.jpg,LZ_noise\LZ_noise_165.jpg,LZ_noise\LZ_noise_196.jpg,LZ_noise\LZ_noise_171.jpg,LZ_noise\LZ_noise_119.jpg,LZ_noise\LZ_noise_182.jpg,LZ_noise\LZ_noise_191.jpg,LZ_noise\LZ_noise_39.jpg,None,None,None,None,None,None,None,None,2,LZ_noise\LZ_noise_196.jpg,1,a,3,32,0,7,7,7,,,,,,,,,,,,,,,61.16445929999463,None,,,,,,,,,66.12080029997742,67.12760519998847,67.11940989998402,None,l,0,0.8377656999509782,1.0051536700339057,None,62.23078739998164,62.6812797000166,62.723474800004624,63.17449489998398,63.223708699981216,63.67435869999463,63.723483700014185,64.17436509998515,64.22348849999253,64.67439739999827,64.72351119999075,65.17431309999665,65.22348929999862,65.6743831000058,65.72357470000861,None,,,,,,,,,,,,,,,,,,,,,,,,,,,,,,,,,,,,001,2020_Dec_17_1700,new_STLI_practise_noise,2020.2.10,143.98537116263367,
LZ_noise\LZ_noise_197.jpg,LZ_noise\LZ_noise_230.jpg,LZ_noise\LZ_noise_156.jpg,LZ_noise\LZ_noise_149.jpg,LZ_noise\LZ_noise_203.jpg,LZ_noise\LZ_noise_215.jpg,LZ_noise\LZ_noise_210.jpg,LZ_noise\LZ_noise_219.jpg,None,None,None,None,None,None,None,None,2,LZ_noise\LZ_noise_197.jpg,1,a,3,32,0,8,8,8,,,,,,,,,,,,,,,67.96646630001487,None,,,,,,,,,72.93065210001078,73.93357839999953,73.92507499997737,None,l,0,1.1121859999839216,1.0048226400394924,None,69.02731749997474,69.48005130002275,69.52216019999469,69.97311880002962,70.02224740001839,70.47301339998376,70.52234329999192,70.97306689998368,71.02226920000976,71.47310750000179,71.52234610001324,71.9730833999929,72.02221850003116,72.47305349999806,72.52230990002863,None,,,,,,,,,,,,,,,,,,,,,,,,,,,,,,,,,,,,001,2020_Dec_17_1700,new_STLI_practise_noise,2020.2.10,143.98537116263367,
LZ_noise\LZ_noise_199.jpg,LZ_noise\LZ_noise_137.jpg,LZ_noise\LZ_noise_93.jpg,LZ_noise\LZ_noise_5.jpg,LZ_noise\LZ_noise_163.jpg,LZ_noise\LZ_noise_84.jpg,LZ_noise\LZ_noise_46.jpg,LZ_noise\LZ_noise_114.jpg,None,None,None,None,None,None,None,None,2,LZ_noise\LZ_noise_84.jpg,1,a,3,32,0,9,9,9,,,,,,,,,,,,,,,75.05022829998052,None,,,,,,,,,80.01032459997805,81.01680729998043,81.00845379999373,None,a,1,1.3647065999684855,1.0050794700509869,None,76.11723540001549,76.57034889998613,76.60560449998593,77.05649099999573,77.10560680000344,77.5565065999981,77.60564309998881,78.05651450000005,78.1056760000065,78.55650210002204,78.60561859997688,79.05650940001942,79.10563180001918,79.55650880001485,79.60565899999347,None,,,,,,,,,,,,,,,,,,,,,,,,,,,,,,,,,,,,001,2020_Dec_17_1700,new_STLI_practise_noise,2020.2.10,143.98537116263367,
LZ_noise\LZ_noise_27.jpg,LZ_noise\LZ_noise_186.jpg,LZ_noise\LZ_noise_218.jpg,LZ_noise\LZ_noise_112.jpg,LZ_noise\LZ_noise_200.jpg,LZ_noise\LZ_noise_15.jpg,LZ_noise\LZ_noise_134.jpg,LZ_noise\LZ_noise_192.jpg,None,None,None,None,None,None,None,None,2,LZ_noise\LZ_noise_233.jpg,0,l,3,32,0,10,10,10,,,,,,,,,,,,,,,82.38719340000534,None,,,,,,,,,87.34935299999779,88.35057670000242,88.34188359999098,None,l,1,3.54299380001612,0.9998048400739208,None,83.45656800002325,83.91073549998691,83.95293219998712,84.40376050001942,84.45295170001918,84.90382770000724,84.95318230002886,85.40377229999285,85.45377269998426,85.90382429998135,85.95298729999922,86.40384139999514,86.45320240000729,86.90383369999472,86.95298619999085,None,,,,,,,,,,,,,,,,,,,,,,,,,,,,,,,,,,,,001,2020_Dec_17_1700,new_STLI_practise_noise,2020.2.10,143.98537116263367,
LZ_noise\LZ_noise_28.jpg,LZ_noise\LZ_noise_240.jpg,LZ_noise\LZ_noise_205.jpg,LZ_noise\LZ_noise_60.jpg,LZ_noise\LZ_noise_29.jpg,LZ_noise\LZ_noise_115.jpg,LZ_noise\LZ_noise_148.jpg,LZ_noise\LZ_noise_1.jpg,None,None,None,None,None,None,None,None,2,LZ_noise\LZ_noise_3.jpg,0,l,3,32,0,11,11,11,,,,,,,,,,,,,,,91.89543560001766,None,,,,,,,,,96.8566531999968,97.85755389998667,97.8489491000073,None,a,0,2.2924459999776445,0.9999909400357865,None,92.96324160002405,93.41781469999114,93.46004889998585,93.9108763000113,93.96005350002088,94.41085109999403,94.4600096999784,94.91089170001214,94.96001859998796,95.41087030002382,95.46004390000599,95.91087640001206,95.96005049999803,96.41089609998744,96.4600559999817,None,,,,,,,,,,,,,,,,,,,,,,,,,,,,,,,,,,,,001,2020_Dec_17_1700,new_STLI_practise_noise,2020.2.10,143.98537116263367,
LZ_noise\LZ_noise_102.jpg,LZ_noise\LZ_noise_130.jpg,LZ_noise\LZ_noise_236.jpg,LZ_noise\LZ_noise_95.jpg,LZ_noise\LZ_noise_127.jpg,LZ_noise\LZ_noise_65.jpg,LZ_noise\LZ_noise_181.jpg,LZ_noise\LZ_noise_75.jpg,LZ_noise\LZ_noise_80.jpg,LZ_noise\LZ_noise_90.jpg,LZ_noise\LZ_noise_12.jpg,LZ_noise\LZ_noise_190.jpg,None,None,None,None,3,LZ_noise\LZ_noise_73.jpg,0,l,3,33,0,12,12,12,,,,,,,,,,,,,,,100.15201650001109,None,,,,,,,,,105.16713070002152,106.1703793000197,106.16179159999592,None,l,1,2.7415338999708183,1.0053381100296974,None,,,,,,,,,,,,,,,,,101.28418580000289,101.58498210000107,101.6272855999996,101.93232269998407,101.98120370000834,102.2866997999954,102.28029020002577,102.58463400002802,102.62695990002248,102.93183349998435,102.98099790001288,103.27981440001167,103.27981440001167,103.58509030001005,103.62738120002905,103.93232560000615,103.98174419999123,104.28695239999797,104.28040069999406,104.58495370001765,104.62749500002246,104.9320250999881,104.98147970001446,None,,,,,,,,,,,,001,2020_Dec_17_1700,new_STLI_practise_noise,2020.2.10,143.98537116263367,
LZ_noise\LZ_noise_25.jpg,LZ_noise\LZ_noise_71.jpg,LZ_noise\LZ_noise_141.jpg,LZ_noise\LZ_noise_125.jpg,LZ_noise\LZ_noise_136.jpg,LZ_noise\LZ_noise_139.jpg,LZ_noise\LZ_noise_235.jpg,LZ_noise\LZ_noise_155.jpg,LZ_noise\LZ_noise_110.jpg,LZ_noise\LZ_noise_44.jpg,LZ_noise\LZ_noise_198.jpg,LZ_noise\LZ_noise_58.jpg,None,None,None,None,3,LZ_noise\LZ_noise_57.jpg,0,l,3,33,0,13,13,13,,,,,,,,,,,,,,,108.9148999999743,None,,,,,,,,,113.92755490000127,114.9335785000003,114.92601930000819,None,l,1,1.2157266999711283,1.0052215399919078,None,,,,,,,,,,,,,,,,,110.01779820001684,110.32083420001436,110.36332720000064,110.66856239998015,110.71079819998704,111.01628929999424,111.00964240002213,111.31400329997996,111.36339539999608,111.66832659998909,111.7108044999768,112.01619769999525,112.00969710003119,112.31420929997694,112.36321500001941,112.66828869999154,112.7107784000109,113.01584730000468,113.0093646000023,113.31406070000958,113.36368700000457,113.6683407999808,113.71071359998314,None,,,,,,,,,,,,001,2020_Dec_17_1700,new_STLI_practise_noise,2020.2.10,143.98537116263367,
LZ_noise\LZ_noise_61.jpg,LZ_noise\LZ_noise_18.jpg,LZ_noise\LZ_noise_132.jpg,LZ_noise\LZ_noise_228.jpg,LZ_noise\LZ_noise_222.jpg,LZ_noise\LZ_noise_164.jpg,LZ_noise\LZ_noise_47.jpg,LZ_noise\LZ_noise_55.jpg,LZ_noise\LZ_noise_220.jpg,LZ_noise\LZ_noise_69.jpg,LZ_noise\LZ_noise_103.jpg,LZ_noise\LZ_noise_157.jpg,None,None,None,None,3,LZ_noise\LZ_noise_177.jpg,0,l,3,33,0,14,14,14,,,,,,,,,,,,,,,116.15086679998785,None,,,,,,,,,121.17073990002973,122.176129999978,122.16201410000212,None,l,1,0.7872064000112005,0.9996708100079559,None,,,,,,,,,,,,,,,,,117.25853380002081,117.55750739999348,117.59947299998021,117.9042498000199,117.94704040000215,118.25252450001426,118.25252450001426,118.55735489999643,118.59975410002517,118.90442580002127,118.94672399997944,119.25260070001241,119.25260070001241,119.55751110002166,119.59978049999336,119.90441550000105,119.94679750001524,120.25235349999275,120.25235349999275,120.55726640002104,120.59951239998918,120.9045230000047,120.94697930000257,None,,,,,,,,,,,,001,2020_Dec_17_1700,new_STLI_practise_noise,2020.2.10,143.98537116263367,
LZ_noise\LZ_noise_4.jpg,LZ_noise\LZ_noise_147.jpg,LZ_noise\LZ_noise_26.jpg,LZ_noise\LZ_noise_145.jpg,LZ_noise\LZ_noise_140.jpg,LZ_noise\LZ_noise_81.jpg,LZ_noise\LZ_noise_183.jpg,LZ_noise\LZ_noise_72.jpg,LZ_noise\LZ_noise_168.jpg,LZ_noise\LZ_noise_57.jpg,LZ_noise\LZ_noise_85.jpg,LZ_noise\LZ_noise_74.jpg,None,None,None,None,3,LZ_noise\LZ_noise_165.jpg,0,l,3,33,0,15,15,15,,,,,,,,,,,,,,,122.96283799997764,None,,,,,,,,,127.97056500002509,128.97543140000198,128.96752659999765,None,l,1,0.9899884999613278,1.002753670036327,None,,,,,,,,,,,,,,,,,124.05758490000153,124.3626747999806,124.39794090000214,124.70296269998653,124.74522400001297,125.05070209997939,125.05070209997939,125.3557769000181,125.39790199999698,125.70293620001758,125.74515720002819,126.05071600002702,126.05071600002702,126.35582420002902,126.39797950000502,126.70305920002284,126.74531730002491,127.05125219997717,127.05125219997717,127.35578169999644,127.39794579998124,127.70296000002418,127.74518989998614,None,,,,,,,,,,,,001,2020_Dec_17_1700,new_STLI_practise_noise,2020.2.10,143.98537116263367,
LZ_noise\LZ_noise_8.jpg,LZ_noise\LZ_noise_188.jpg,LZ_noise\LZ_noise_214.jpg,LZ_noise\LZ_noise_63.jpg,LZ_noise\LZ_noise_86.jpg,LZ_noise\LZ_noise_40.jpg,LZ_noise\LZ_noise_153.jpg,LZ_noise\LZ_noise_21.jpg,LZ_noise\LZ_noise_106.jpg,LZ_noise\LZ_noise_233.jpg,LZ_noise\LZ_noise_238.jpg,LZ_noise\LZ_noise_162.jpg,None,None,None,None,3,LZ_noise\LZ_noise_78.jpg,0,l,3,33,0,16,16,16,,,,,,,,,,,,,,,129.97205530002248,None,,,,,,,,,134.9842119999812,135.99103969999123,135.9815717000165,None,a,0,3.0879762999829836,1.0040959400357679,None,,,,,,,,,,,,,,,,,131.07109859999036,131.3699850999983,131.41246449999744,131.71752860001288,131.75948940002127,132.06523649999872,132.06523649999872,132.37010370002827,132.41243979998399,132.7171389000141,132.759484899987,133.06510940002045,133.06510940002045,133.3702272999799,133.41209860000527,133.7170679999981,133.75943929998903,134.065139000013,134.05869009997696,134.36350520001724,134.41253640002105,134.7171234000125,134.75945840001805,None,,,,,,,,,,,,001,2020_Dec_17_1700,new_STLI_practise_noise,2020.2.10,143.98537116263367,
LZ_noise\LZ_noise_35.jpg,LZ_noise\LZ_noise_38.jpg,LZ_noise\LZ_noise_221.jpg,LZ_noise\LZ_noise_124.jpg,LZ_noise\LZ_noise_51.jpg,LZ_noise\LZ_noise_96.jpg,LZ_noise\LZ_noise_76.jpg,LZ_noise\LZ_noise_166.jpg,LZ_noise\LZ_noise_78.jpg,LZ_noise\LZ_noise_41.jpg,LZ_noise\LZ_noise_43.jpg,LZ_noise\LZ_noise_14.jpg,None,None,None,None,3,LZ_noise\LZ_noise_169.jpg,0,l,3,33,0,17,17,17,,,,,,,,,,,,,,,139.0819442999782,None,,,,,,,,,144.10655580001185,145.1075915999827,145.09981939999852,None,a,0,0.6977492999867536,1.0019766800687648,None,,,,,,,,,,,,,,,,,140.17914399999427,140.48093670001253,140.52333960001124,140.82851880003,140.87062330002664,141.1762951000128,141.16949800000293,141.4741636000108,141.52359669998987,141.82843559997855,141.870594899985,142.17636280000443,142.16995970002608,142.47449170000618,142.52318979997654,142.82140570000047,142.8707705999841,143.1762593999738,143.16969349997817,143.47401290002745,143.5236343999859,143.8287026999751,143.87048560002586,None,,,,,,,,,,,,001,2020_Dec_17_1700,new_STLI_practise_noise,2020.2.10,143.98537116263367,
,,,,,,,,,,,,,,,,,,,,,,,,,,,,,,,,,,,,,,,,,,,,,,,,,,,,,,,,,,,,,,,,,,,,,,,,,,,,,,,,,,,,,,,,,,,,,,,,,,,145.8220834999811,None,space,7.782988500024658,145.8220834999811,None,,,,,,001,2020_Dec_17_1700,new_STLI_practise_noise,2020.2.10,143.98537116263367,
,,,,,,,,,,,,,,,,,,,,,,,,,,,,,,,,,,,,,,,,,,,,,,,,,,,,,,,,,,,,,,,,,,,,,,,,,,,,,,,,,,,,,,,,,,,,,,,,,,,,,,,,,145.8220834999811,None,153.61641989997588,None,,,,,,,
