imageone,imagetwo,imagethree,imagefour,imagefive,imagesix,imageseven,imageeight,imagenine,imageten,imageeleven,imagetwelve,imagethirteen,imagefourteen,imagefifteen,imagesixteen,frequency,choice_image,choice_type,correct_answer,stimulus_type,condition_code,block_one.thisRepN,block_one.thisTrialN,block_one.thisN,block_one.thisIndex,fone_control_b1.thisRepN,fone_control_b1.thisTrialN,fone_control_b1.thisN,fone_control_b1.thisIndex,ftwo_control_b1.thisRepN,ftwo_control_b1.thisTrialN,ftwo_control_b1.thisN,ftwo_control_b1.thisIndex,fthree_control_b1.thisRepN,fthree_control_b1.thisTrialN,fthree_control_b1.thisN,fthree_control_b1.thisIndex,ffour_control_b1.thisRepN,ffour_control_b1.thisTrialN,ffour_control_b1.thisN,ffour_control_b1.thisIndex,block_two.thisRepN,block_two.thisTrialN,block_two.thisN,block_two.thisIndex,fone_control_b2.thisRepN,fone_control_b2.thisTrialN,fone_control_b2.thisN,fone_control_b2.thisIndex,ftwo_control_b2.thisRepN,ftwo_control_b2.thisTrialN,ftwo_control_b2.thisN,ftwo_control_b2.thisIndex,fthree_control_b2.thisRepN,fthree_control_b2.thisTrialN,fthree_control_b2.thisN,fthree_control_b2.thisIndex,ffour_control_b2.thisRepN,ffour_control_b2.thisTrialN,ffour_control_b2.thisN,ffour_control_b2.thisIndex,text.started,text.stopped,Crossm.started,Crossm.stopped,Presentation_image_f1_1.started,Presentation_image_f1_1.stopped,Presentation_image_f1_2.started,Presentation_image_f1_2.stopped,Presentation_image_f1_3.started,Presentation_image_f1_3.stopped,Presentation_image_f1_4.started,Presentation_image_f1_4.stopped,Fixation_cross.started,Fixation_cross.stopped,displayed_choice_image.started,displayed_choice_image.stopped,key_resp.keys,key_resp.corr,key_resp.rt,key_resp.started,key_resp.stopped,Presentation_image_f3_1.started,Presentation_image_f3_1.stopped,Presentation_image_f3_2.started,Presentation_image_f3_2.stopped,Presentation_image_f3_3.started,Presentation_image_f3_3.stopped,Presentation_image_f3_4.started,Presentation_image_f3_4.stopped,Presentation_image_f3_5.started,Presentation_image_f3_5.stopped,Presentation_image_f3_6.started,Presentation_image_f3_6.stopped,Presentation_image_f3_7.started,Presentation_image_f3_7.stopped,Presentation_image_f3_8.started,Presentation_image_f3_8.stopped,Presentation_image_f3_9.started,Presentation_image_f3_9.stopped,Presentation_image_f3_10.started,Presentation_image_f3_10.stopped,Presentation_image_f3_11.started,Presentation_image_f3_11.stopped,Presentation_image_f3_12.started,Presentation_image_f3_12.stopped,Presentation_image_f2_1.started,Presentation_image_f2_1.stopped,Presentation_image_f2_2.started,Presentation_image_f2_2.stopped,Presentation_image_f2_3.started,Presentation_image_f2_3.stopped,Presentation_image_f2_4.started,Presentation_image_f2_4.stopped,Presentation_image_f2_5.started,Presentation_image_f2_5.stopped,Presentation_image_f2_6.started,Presentation_image_f2_6.stopped,Presentation_image_f2_7.started,Presentation_image_f2_7.stopped,Presentation_image_f2_8.started,Presentation_image_f2_8.stopped,text_break.started,text_break.stopped,participant,session,date,expName,psychopyVersion,frameRate,
LZ_scrambled\LZ_scrambled_190.jpg,LZ_scrambled\LZ_scrambled_7.jpg,LZ_scrambled\LZ_scrambled_85.jpg,LZ_scrambled\LZ_scrambled_220.jpg,None,None,None,None,None,None,None,None,None,None,None,None,1,LZ_scrambled\LZ_scrambled_7.jpg,1,a,2,21,0,0,0,0,,,,,,,,,,,,,,,,,,,,,,,,,,,,,,,,,,,,,10.262616799969692,None,25.25989099999424,None,26.36101759999292,27.36135949997697,27.334584199998062,28.334205299965106,28.334205299965106,29.334224799997173,29.334224799997173,None,30.219717699976172,31.224835600005463,31.216200999973807,None,a,1,0.9499381999485195,1.0016498999902979,None,,,,,,,,,,,,,,,,,,,,,,,,,,,,,,,,,,,,,,,,,,,,001,2020_Dec_17_1752,new_STLI_updated,2020.2.10,143.90911861214985,
LZ_noise\LZ_noise_195.jpg,LZ_noise\LZ_noise_173.jpg,LZ_noise\LZ_noise_119.jpg,LZ_noise\LZ_noise_85.jpg,None,None,None,None,None,None,None,None,None,None,None,None,1,LZ_noise\LZ_noise_102.jpg,0,l,3,31,0,1,1,1,,,,,,,,,,,,,,,,,,,,,,,,,,,,,,,,,,,,,,,32.18121110001812,None,33.24061989999609,34.24394850002136,34.23700859997189,35.23670319997473,35.23670319997473,36.23666900000535,36.23666900000535,None,37.19937819999177,38.20371650002198,38.1950190999778,None,l,1,0.9392402000376023,1.0002901999978349,None,,,,,,,,,,,,,,,,,,,,,,,,,,,,,,,,,,,,,,,,,,,,001,2020_Dec_17_1752,new_STLI_updated,2020.2.10,143.90911861214985,
LZ_natural\LZ_natural_173.jpg,LZ_natural\LZ_natural_79.jpg,LZ_natural\LZ_natural_35.jpg,LZ_natural\LZ_natural_143.jpg,LZ_natural\LZ_natural_39.jpg,LZ_natural\LZ_natural_25.jpg,LZ_natural\LZ_natural_206.jpg,LZ_natural\LZ_natural_80.jpg,LZ_natural\LZ_natural_112.jpg,LZ_natural\LZ_natural_235.jpg,LZ_natural\LZ_natural_115.jpg,LZ_natural\LZ_natural_207.jpg,None,None,None,None,3,LZ_natural\LZ_natural_206.jpg,1,a,1,13,0,2,2,2,,,,,,,,,,,,,,,,,,,,,,,,,,,,,,,,,,,,,,,39.144622899999376,None,,,,,,,,,44.153221099986695,45.15457080001943,45.14665559999412,None,l,0,0.6041249000118114,1.0041165000293404,None,40.2293212999939,40.53480369999306,40.57006369996816,40.875217899971176,40.917705399973784,41.22294770000735,41.21681539999554,41.52090080000926,41.57014909997815,41.87526669999352,41.917999500001315,42.22328480001306,42.21672560001025,42.52125420002267,42.570280999992974,42.86813329998404,42.917359700019006,43.22310890001245,43.21663029998308,43.52137179998681,43.570498700020835,43.87547209998593,43.917836599983275,None,,,,,,,,,,,,,,,,,,,,001,2020_Dec_17_1752,new_STLI_updated,2020.2.10,143.90911861214985,
LZ_scrambled\LZ_scrambled_13.jpg,LZ_scrambled\LZ_scrambled_234.jpg,LZ_scrambled\LZ_scrambled_21.jpg,LZ_scrambled\LZ_scrambled_208.jpg,LZ_scrambled\LZ_scrambled_189.jpg,LZ_scrambled\LZ_scrambled_29.jpg,LZ_scrambled\LZ_scrambled_117.jpg,LZ_scrambled\LZ_scrambled_54.jpg,LZ_scrambled\LZ_scrambled_198.jpg,LZ_scrambled\LZ_scrambled_222.jpg,LZ_scrambled\LZ_scrambled_126.jpg,LZ_scrambled\LZ_scrambled_180.jpg,None,None,None,None,3,LZ_scrambled\LZ_scrambled_96.jpg,0,l,2,23,0,3,3,3,,,,,,,,,,,,,,,,,,,,,,,,,,,,,,,,,,,,,,,45.76773969997885,None,,,,,,,,,50.78396640002029,51.78799230000004,51.77201239997521,None,l,1,0.6020413999794982,1.0002478000242263,None,47.08349430002272,47.382308800006285,47.41791889996966,47.72277459996985,47.77223489998141,48.077471799973864,48.07096460001776,48.3753317000228,48.41816210001707,48.722567400021944,48.77224299998488,49.07740130001912,49.0714469999657,49.37533120001899,49.42472379998071,49.72942859999603,49.772051299980376,50.077151499979664,50.07072389998939,50.375640199985355,50.42471380002098,50.72984579997137,None,None,,,,,,,,,,,,,,,,,,,,001,2020_Dec_17_1752,new_STLI_updated,2020.2.10,143.90911861214985,
LZ_scrambled\LZ_scrambled_95.jpg,LZ_scrambled\LZ_scrambled_45.jpg,LZ_scrambled\LZ_scrambled_105.jpg,LZ_scrambled\LZ_scrambled_100.jpg,LZ_scrambled\LZ_scrambled_69.jpg,LZ_scrambled\LZ_scrambled_120.jpg,LZ_scrambled\LZ_scrambled_131.jpg,LZ_scrambled\LZ_scrambled_68.jpg,None,None,None,None,None,None,None,None,2,LZ_scrambled\LZ_scrambled_131.jpg,1,a,2,22,0,4,4,4,,,,,,,,,,,,,,,,,,,,,,,,,,,,,,,,,,,,,,,52.38763549999567,None,,,,,,,,,57.35505249997368,58.35552679997636,58.3485102999839,None,a,1,0.9060280999983661,1.0044828999671154,None,,,,,,,,,,,,,,,,,,,,,,,,,53.54236730001867,53.993693900003564,54.036229000019375,54.486486300011165,54.536063999985345,54.986594500020146,55.036464000004344,55.48675659997389,55.53652379999403,55.98675420001382,56.03728109999793,56.486519999976736,56.53675919998204,56.98672370001441,57.036432900000364,None,,,,001,2020_Dec_17_1752,new_STLI_updated,2020.2.10,143.90911861214985,
LZ_noise\LZ_noise_31.jpg,LZ_noise\LZ_noise_53.jpg,LZ_noise\LZ_noise_231.jpg,LZ_noise\LZ_noise_228.jpg,LZ_noise\LZ_noise_151.jpg,LZ_noise\LZ_noise_68.jpg,LZ_noise\LZ_noise_59.jpg,LZ_noise\LZ_noise_148.jpg,LZ_noise\LZ_noise_163.jpg,LZ_noise\LZ_noise_108.jpg,LZ_noise\LZ_noise_109.jpg,LZ_noise\LZ_noise_146.jpg,None,None,None,None,3,LZ_noise\LZ_noise_140.jpg,0,l,3,33,0,5,5,5,,,,,,,,,,,,,,,,,,,,,,,,,,,,,,,,,,,,,,,59.26841209997656,None,,,,,,,,,64.28123459999915,65.28695079998579,65.27209149999544,None,a,0,1.99022600002354,1.002060100028757,None,60.439051699999254,60.74364840000635,60.77902570000151,61.08417099999497,61.12637830001768,61.43136499996763,61.42485770001076,61.729937899974175,61.77914649999002,62.08383189997403,62.12646329996642,62.43142189999344,62.42508740001358,62.72998980002012,62.77899899997283,63.08390440000221,63.126082799979486,63.431592600012664,63.425223500002176,63.73000719997799,63.7789687999757,64.08395240001846,64.13311019999674,None,,,,,,,,,,,,,,,,,,,,001,2020_Dec_17_1752,new_STLI_updated,2020.2.10,143.90911861214985,
LZ_natural\LZ_natural_232.jpg,LZ_natural\LZ_natural_165.jpg,LZ_natural\LZ_natural_46.jpg,LZ_natural\LZ_natural_226.jpg,LZ_natural\LZ_natural_91.jpg,LZ_natural\LZ_natural_78.jpg,LZ_natural\LZ_natural_34.jpg,LZ_natural\LZ_natural_100.jpg,LZ_natural\LZ_natural_104.jpg,LZ_natural\LZ_natural_203.jpg,LZ_natural\LZ_natural_59.jpg,LZ_natural\LZ_natural_57.jpg,None,None,None,None,3,LZ_natural\LZ_natural_100.jpg,1,a,1,13,0,6,6,6,,,,,,,,,,,,,,,,,,,,,,,,,,,,,,,,,,,,,,,67.27614209998865,None,,,,,,,,,72.28085959999589,73.28862619999563,73.27912079996895,None,a,1,0.7272290000109933,1.004586900002323,None,68.35014469997259,68.65359479998006,68.69566729996586,69.00092640001094,69.04310979996808,69.34819889999926,69.34234099998139,69.64677689998643,69.69578969996655,70.0008713999996,70.04331069998443,70.34837720001815,70.3421855000197,70.64644869999029,70.69572159997188,71.00058390002232,71.04281959997024,71.34857560001547,71.34228659997461,71.64672710001469,71.69576699996833,72.00100879999809,72.04279969999334,None,,,,,,,,,,,,,,,,,,,,001,2020_Dec_17_1752,new_STLI_updated,2020.2.10,143.90911861214985,
LZ_noise\LZ_noise_226.jpg,LZ_noise\LZ_noise_235.jpg,LZ_noise\LZ_noise_157.jpg,LZ_noise\LZ_noise_3.jpg,None,None,None,None,None,None,None,None,None,None,None,None,1,LZ_noise\LZ_noise_226.jpg,1,a,3,31,0,7,7,7,,,,,,,,,,,,,,,,,,,,,,,,,,,,,,,,,,,,,,,74.01727579999715,None,75.06110679998528,76.0639894999913,76.05724729999201,77.0568796999869,77.0568796999869,78.05723909998778,78.05723909998778,None,79.0268170000054,80.03057790000457,80.02269820001675,None,a,1,0.5514720000210218,1.000643199949991,None,,,,,,,,,,,,,,,,,,,,,,,,,,,,,,,,,,,,,,,,,,,,001,2020_Dec_17_1752,new_STLI_updated,2020.2.10,143.90911861214985,
LZ_scrambled\LZ_scrambled_80.jpg,LZ_scrambled\LZ_scrambled_200.jpg,LZ_scrambled\LZ_scrambled_35.jpg,LZ_scrambled\LZ_scrambled_144.jpg,LZ_scrambled\LZ_scrambled_123.jpg,LZ_scrambled\LZ_scrambled_97.jpg,LZ_scrambled\LZ_scrambled_41.jpg,LZ_scrambled\LZ_scrambled_79.jpg,None,None,None,None,None,None,None,None,2,LZ_scrambled\LZ_scrambled_41.jpg,1,a,2,22,0,8,8,8,,,,,,,,,,,,,,,,,,,,,,,,,,,,,,,,,,,,,,,80.59074650000548,None,,,,,,,,,85.56308960000752,86.56600869999966,86.5501479000086,None,l,0,1.024022799974773,0.9998749999795109,None,,,,,,,,,,,,,,,,,,,,,,,,,81.78278229996795,82.23696750000818,82.27267659996869,82.72311570000602,82.77247799996985,83.22319009999046,83.27267299999949,83.72332469996763,83.77264149999246,84.22310709999874,84.27239679999184,84.72292689996539,84.77272589999484,85.22328500001458,85.27231640001992,None,,,,001,2020_Dec_17_1752,new_STLI_updated,2020.2.10,143.90911861214985,
LZ_scrambled\LZ_scrambled_145.jpg,LZ_scrambled\LZ_scrambled_118.jpg,LZ_scrambled\LZ_scrambled_238.jpg,LZ_scrambled\LZ_scrambled_235.jpg,LZ_scrambled\LZ_scrambled_181.jpg,LZ_scrambled\LZ_scrambled_139.jpg,LZ_scrambled\LZ_scrambled_240.jpg,LZ_scrambled\LZ_scrambled_228.jpg,LZ_scrambled\LZ_scrambled_86.jpg,LZ_scrambled\LZ_scrambled_203.jpg,LZ_scrambled\LZ_scrambled_175.jpg,LZ_scrambled\LZ_scrambled_218.jpg,None,None,None,None,3,LZ_scrambled\LZ_scrambled_238.jpg,1,a,2,23,0,9,9,9,,,,,,,,,,,,,,,,,,,,,,,,,,,,,,,,,,,,,,,87.58762649999699,None,,,,,,,,,92.60320439998759,93.60798759997124,93.59186719998252,None,l,0,1.5427388999960385,0.9999570000218228,None,88.89165080001112,89.19545559998369,89.22390789998462,89.5289850999834,89.5712958999793,89.87693909998052,89.87693909998052,90.181220199971,90.22374320001109,90.52847550000297,90.5777461999678,90.88309060002211,90.87673119996907,91.18124479998369,91.22366389998933,91.52846509998199,91.57785970001714,91.88306309998734,91.87685210001655,92.18120940000517,92.22366479999619,92.5284692000132,92.57785950001562,None,,,,,,,,,,,,,,,,,,,,001,2020_Dec_17_1752,new_STLI_updated,2020.2.10,143.90911861214985,
LZ_natural\LZ_natural_107.jpg,LZ_natural\LZ_natural_196.jpg,LZ_natural\LZ_natural_157.jpg,LZ_natural\LZ_natural_83.jpg,LZ_natural\LZ_natural_212.jpg,LZ_natural\LZ_natural_13.jpg,LZ_natural\LZ_natural_131.jpg,LZ_natural\LZ_natural_194.jpg,None,None,None,None,None,None,None,None,2,LZ_natural\LZ_natural_37.jpg,0,l,1,12,0,10,10,10,,,,,,,,,,,,,,,,,,,,,,,,,,,,,,,,,,,,,,,95.14444880001247,None,,,,,,,,,100.10358180000912,101.10759640001925,101.09893699997338,None,l,1,1.1394516000291333,1.0039732999866828,None,,,,,,,,,,,,,,,,,,,,,,,,,96.24529709998751,96.69568689999869,96.7376276999712,97.18856360000791,97.23768429999473,97.68853139999555,97.73768069996731,98.1884621999925,98.23744699999224,98.6884013999952,98.73790960002225,99.18863809999311,99.2376351999701,99.68863609997788,99.73777269996936,None,,,,001,2020_Dec_17_1752,new_STLI_updated,2020.2.10,143.90911861214985,
LZ_scrambled\LZ_scrambled_65.jpg,LZ_scrambled\LZ_scrambled_44.jpg,LZ_scrambled\LZ_scrambled_217.jpg,LZ_scrambled\LZ_scrambled_31.jpg,LZ_scrambled\LZ_scrambled_134.jpg,LZ_scrambled\LZ_scrambled_96.jpg,LZ_scrambled\LZ_scrambled_169.jpg,LZ_scrambled\LZ_scrambled_8.jpg,None,None,None,None,None,None,None,None,2,LZ_scrambled\LZ_scrambled_231.jpg,0,l,2,22,0,11,11,11,,,,,,,,,,,,,,,,,,,,,,,,,,,,,,,,,,,,,,,102.25214290001895,None,,,,,,,,,107.22803649998968,108.23334360000445,108.22413669998059,None,l,1,0.7101824000128545,1.002581199980341,None,,,,,,,,,,,,,,,,,,,,,,,,,103.43779729999369,103.88991319999332,103.92519899999024,104.37647740001557,104.42540780000854,104.87643790000584,104.92548999999417,105.37612500000978,105.42537020001328,105.87606849998701,105.92548749997513,106.37618319998728,106.42548619996523,106.87612570001511,106.92553070001304,None,,,,001,2020_Dec_17_1752,new_STLI_updated,2020.2.10,143.90911861214985,
LZ_scrambled\LZ_scrambled_216.jpg,LZ_scrambled\LZ_scrambled_202.jpg,LZ_scrambled\LZ_scrambled_66.jpg,LZ_scrambled\LZ_scrambled_73.jpg,LZ_scrambled\LZ_scrambled_92.jpg,LZ_scrambled\LZ_scrambled_152.jpg,LZ_scrambled\LZ_scrambled_158.jpg,LZ_scrambled\LZ_scrambled_90.jpg,LZ_scrambled\LZ_scrambled_156.jpg,LZ_scrambled\LZ_scrambled_18.jpg,LZ_scrambled\LZ_scrambled_128.jpg,LZ_scrambled\LZ_scrambled_194.jpg,None,None,None,None,3,LZ_scrambled\LZ_scrambled_92.jpg,1,a,2,23,0,12,12,12,,,,,,,,,,,,,,,,,,,,,,,,,,,,,,,,,,,,,,,108.94936819997383,None,,,,,,,,,113.96547439997084,114.96861669997452,114.95335460000206,None,a,1,0.8370605999953113,0.9999325000098906,None,110.18325669999467,110.48719820001861,110.52303689997643,110.82756100001279,110.87691039999481,111.18214689998422,111.17629079998005,111.4804240000085,111.52280209999299,111.82752479996998,111.87694390001707,112.18245889997343,112.17606179998256,112.48025159997633,112.52306279999902,112.8278681000229,112.87694659997942,113.18241000000853,113.17607889999636,113.48054509999929,113.5229969000211,113.82779259997187,113.87710270000389,None,,,,,,,,,,,,,,,,,,,,001,2020_Dec_17_1752,new_STLI_updated,2020.2.10,143.90911861214985,
LZ_natural\LZ_natural_73.jpg,LZ_natural\LZ_natural_130.jpg,LZ_natural\LZ_natural_202.jpg,LZ_natural\LZ_natural_95.jpg,None,None,None,None,None,None,None,None,None,None,None,None,1,LZ_natural\LZ_natural_73.jpg,1,a,1,11,0,13,13,13,,,,,,,,,,,,,,,,,,,,,,,,,,,,,,,,,,,,,,,115.80152009997983,None,116.85022989998106,117.8492724999669,117.84244699997362,118.84246319998056,118.84246319998056,119.84212669997942,119.84212669997942,None,120.81302539998433,121.81657439999981,121.80758199997945,None,a,1,0.766763300052844,1.0038954999763519,None,,,,,,,,,,,,,,,,,,,,,,,,,,,,,,,,,,,,,,,,,,,,001,2020_Dec_17_1752,new_STLI_updated,2020.2.10,143.90911861214985,
LZ_noise\LZ_noise_69.jpg,LZ_noise\LZ_noise_214.jpg,LZ_noise\LZ_noise_45.jpg,LZ_noise\LZ_noise_191.jpg,LZ_noise\LZ_noise_182.jpg,LZ_noise\LZ_noise_44.jpg,LZ_noise\LZ_noise_47.jpg,LZ_noise\LZ_noise_237.jpg,None,None,None,None,None,None,None,None,2,LZ_noise\LZ_noise_71.jpg,0,l,3,32,0,14,14,14,,,,,,,,,,,,,,,,,,,,,,,,,,,,,,,,,,,,,,,122.59068929997738,None,,,,,,,,,127.55143449996831,128.55374000000302,128.54393889999483,None,a,0,0.5903881000122055,1.00309729995206,None,,,,,,,,,,,,,,,,,,,,,,,,,123.6920127000194,124.1403320999816,124.16166340000927,124.61274599999888,124.66154850000748,125.11277890001656,125.16194760001963,125.61245249997592,125.66170090000378,126.11247980000917,126.16198809997877,126.6123356000171,126.66177970002173,127.11233129998436,127.1617287999834,None,,,,001,2020_Dec_17_1752,new_STLI_updated,2020.2.10,143.90911861214985,
LZ_scrambled\LZ_scrambled_168.jpg,LZ_scrambled\LZ_scrambled_150.jpg,LZ_scrambled\LZ_scrambled_138.jpg,LZ_scrambled\LZ_scrambled_223.jpg,None,None,None,None,None,None,None,None,None,None,None,None,1,LZ_scrambled\LZ_scrambled_57.jpg,0,l,2,21,0,15,15,15,,,,,,,,,,,,,,,,,,,,,,,,,,,,,,,,,,,,,,,129.1474796999828,None,130.22402249998413,131.224294500018,131.21791419998044,132.2174309999682,132.2174309999682,133.2177026999998,133.2177026999998,None,134.18316539999796,135.18604679999407,135.1769592000055,None,a,0,0.7336866999976337,1.0029623999726027,None,,,,,,,,,,,,,,,,,,,,,,,,,,,,,,,,,,,,,,,,,,,,001,2020_Dec_17_1752,new_STLI_updated,2020.2.10,143.90911861214985,
LZ_natural\LZ_natural_160.jpg,LZ_natural\LZ_natural_3.jpg,LZ_natural\LZ_natural_36.jpg,LZ_natural\LZ_natural_21.jpg,None,None,None,None,None,None,None,None,None,None,None,None,1,LZ_natural\LZ_natural_160.jpg,1,a,1,11,0,16,16,16,,,,,,,,,,,,,,,,,,,,,,,,,,,,,,,,,,,,,,,135.9236252999981,None,136.9635244999663,137.96728470001835,137.94719689997146,138.9464677000069,138.9464677000069,139.9465826000087,139.9465826000087,None,140.93149099999573,141.93528510001488,141.92570020002313,None,a,1,0.7126444999594241,1.002270299999509,None,,,,,,,,,,,,,,,,,,,,,,,,,,,,,,,,,,,,,,,,,,,,001,2020_Dec_17_1752,new_STLI_updated,2020.2.10,143.90911861214985,
LZ_noise\LZ_noise_95.jpg,LZ_noise\LZ_noise_206.jpg,LZ_noise\LZ_noise_65.jpg,LZ_noise\LZ_noise_33.jpg,LZ_noise\LZ_noise_94.jpg,LZ_noise\LZ_noise_75.jpg,LZ_noise\LZ_noise_83.jpg,LZ_noise\LZ_noise_25.jpg,LZ_noise\LZ_noise_188.jpg,LZ_noise\LZ_noise_130.jpg,LZ_noise\LZ_noise_193.jpg,LZ_noise\LZ_noise_10.jpg,None,None,None,None,3,LZ_noise\LZ_noise_71.jpg,0,l,3,33,0,17,17,17,,,,,,,,,,,,,,,,,,,,,,,,,,,,,,,,,,,,,,,142.65169749996858,None,,,,,,,,,147.66072109999368,148.6640963999671,148.65494510001736,None,a,0,1.0315421999548562,1.0052819999982603,None,143.78628459997708,144.08524270000635,144.12755709997145,144.43235790001927,144.48164600000018,144.78701660002116,144.78068399999756,145.08534869999858,145.12722259998554,145.43213679996552,145.48140910000075,145.78701530001126,145.7805173000088,146.08493690000614,146.12714579998283,146.4320732000051,146.48162869998487,146.78747799998382,146.78067750000628,147.08532080001896,147.1273727999651,147.43216899997788,147.48163699998986,None,,,,,,,,,,,,,,,,,,,,001,2020_Dec_17_1752,new_STLI_updated,2020.2.10,143.90911861214985,
LZ_noise\LZ_noise_128.jpg,LZ_noise\LZ_noise_55.jpg,LZ_noise\LZ_noise_135.jpg,LZ_noise\LZ_noise_72.jpg,None,None,None,None,None,None,None,None,None,None,None,None,1,LZ_noise\LZ_noise_23.jpg,0,l,3,31,0,18,18,18,,,,,,,,,,,,,,,,,,,,,,,,,,,,,,,,,,,,,,,149.7011020000209,None,150.7401022000122,151.74529140000232,151.73181829997338,152.73179019999225,152.73179019999225,153.73180910001975,153.73180910001975,None,154.72028000000864,155.72698069998296,155.71795219997875,None,l,1,0.9847086999798194,1.0046318999957293,None,,,,,,,,,,,,,,,,,,,,,,,,,,,,,,,,,,,,,,,,,,,,001,2020_Dec_17_1752,new_STLI_updated,2020.2.10,143.90911861214985,
LZ_scrambled\LZ_scrambled_133.jpg,LZ_scrambled\LZ_scrambled_167.jpg,LZ_scrambled\LZ_scrambled_191.jpg,LZ_scrambled\LZ_scrambled_11.jpg,LZ_scrambled\LZ_scrambled_60.jpg,LZ_scrambled\LZ_scrambled_124.jpg,LZ_scrambled\LZ_scrambled_127.jpg,LZ_scrambled\LZ_scrambled_151.jpg,LZ_scrambled\LZ_scrambled_230.jpg,LZ_scrambled\LZ_scrambled_108.jpg,LZ_scrambled\LZ_scrambled_48.jpg,LZ_scrambled\LZ_scrambled_84.jpg,None,None,None,None,3,LZ_scrambled\LZ_scrambled_232.jpg,0,l,2,23,0,19,19,19,,,,,,,,,,,,,,,,,,,,,,,,,,,,,,,,,,,,,,,156.71637729997747,None,,,,,,,,,161.7416195999831,162.7477307000081,162.73873669997556,None,a,0,0.9324719000142068,1.0044286999036558,None,158.01003539998783,158.3144336999976,158.34293739998247,158.64780989999417,158.69038909999654,158.9955921000219,158.9955921000219,159.30024319997756,159.34291060001124,159.64805000001797,159.69029559998307,159.9958310999791,159.9958310999791,160.30019769998034,160.34294419997605,160.6478009999846,160.68995550001273,160.99594980000984,160.99594980000984,161.30052549997345,161.3429463999928,161.6479428000166,161.69028239999898,None,,,,,,,,,,,,,,,,,,,,001,2020_Dec_17_1752,new_STLI_updated,2020.2.10,143.90911861214985,
LZ_scrambled\LZ_scrambled_63.jpg,LZ_scrambled\LZ_scrambled_83.jpg,LZ_scrambled\LZ_scrambled_34.jpg,LZ_scrambled\LZ_scrambled_135.jpg,LZ_scrambled\LZ_scrambled_30.jpg,LZ_scrambled\LZ_scrambled_205.jpg,LZ_scrambled\LZ_scrambled_178.jpg,LZ_scrambled\LZ_scrambled_93.jpg,LZ_scrambled\LZ_scrambled_187.jpg,LZ_scrambled\LZ_scrambled_77.jpg,LZ_scrambled\LZ_scrambled_211.jpg,LZ_scrambled\LZ_scrambled_195.jpg,None,None,None,None,3,LZ_scrambled\LZ_scrambled_219.jpg,0,l,2,23,0,20,20,20,,,,,,,,,,,,,,,,,,,,,,,,,,,,,,,,,,,,,,,163.68686129996786,None,,,,,,,,,168.70352069998626,169.70654049998848,169.6974012000137,None,l,1,0.5808990999939851,1.0033728000125848,None,164.86441689997446,165.16883999999845,165.20402930001728,165.50874169997405,165.55831360002048,165.86378529999638,165.8573582000099,166.16158760001417,166.20409010001458,166.509145500022,166.55805880000116,166.8641807999811,166.85753799998201,167.16164619999472,167.20399140001973,167.5093138999655,167.55849460000172,167.86405390000436,167.85734689998208,168.16193429997656,168.2044602999813,168.50922639999771,168.55824480002047,None,,,,,,,,,,,,,,,,,,,,001,2020_Dec_17_1752,new_STLI_updated,2020.2.10,143.90911861214985,
LZ_natural\LZ_natural_195.jpg,LZ_natural\LZ_natural_103.jpg,LZ_natural\LZ_natural_164.jpg,LZ_natural\LZ_natural_24.jpg,LZ_natural\LZ_natural_88.jpg,LZ_natural\LZ_natural_183.jpg,LZ_natural\LZ_natural_171.jpg,LZ_natural\LZ_natural_192.jpg,None,None,None,None,None,None,None,None,2,LZ_natural\LZ_natural_164.jpg,1,a,1,12,0,21,21,21,,,,,,,,,,,,,,,,,,,,,,,,,,,,,,,,,,,,,,,170.28872579999734,None,,,,,,,,,175.25186419999227,176.2546813999652,176.2455359000014,None,l,0,1.6407813999685459,1.0003254000330344,None,,,,,,,,,,,,,,,,,,,,,,,,,171.31478010001592,171.76602510001976,171.80823339999188,172.25891239999328,172.30791709996993,172.75898809998762,172.80833229998825,173.25884580001002,173.30796940001892,173.7589798999834,173.80851780000376,174.25895330001367,174.3080538000213,174.75904540001648,174.80825699999696,None,,,,001,2020_Dec_17_1752,new_STLI_updated,2020.2.10,143.90911861214985,
LZ_noise\LZ_noise_15.jpg,LZ_noise\LZ_noise_17.jpg,LZ_noise\LZ_noise_164.jpg,LZ_noise\LZ_noise_42.jpg,LZ_noise\LZ_noise_222.jpg,LZ_noise\LZ_noise_209.jpg,LZ_noise\LZ_noise_177.jpg,LZ_noise\LZ_noise_204.jpg,LZ_noise\LZ_noise_133.jpg,LZ_noise\LZ_noise_221.jpg,LZ_noise\LZ_noise_131.jpg,LZ_noise\LZ_noise_57.jpg,None,None,None,None,3,LZ_noise\LZ_noise_166.jpg,0,l,3,33,0,22,22,22,,,,,,,,,,,,,,,,,,,,,,,,,,,,,,,,,,,,,,,177.89653139997972,None,,,,,,,,,182.9160313999746,183.92158540000673,183.91234699997585,None,l,1,0.8297462000045925,1.0024492000229657,None,179.0468142000027,179.34928630001377,179.36353279999457,179.66876570001477,179.7179265000159,180.02355529996566,180.01708000001963,180.3217125000083,180.3636269000126,180.6618768000044,180.7179040000192,181.02371779998066,181.01724339998327,181.3214950999827,181.36364850000245,181.66202150000026,181.71822360000806,182.02343090000795,182.01722350000637,182.32187380001415,182.36361379997106,182.66900809999788,182.71818009996787,None,,,,,,,,,,,,,,,,,,,,001,2020_Dec_17_1752,new_STLI_updated,2020.2.10,143.90911861214985,
LZ_scrambled\LZ_scrambled_115.jpg,LZ_scrambled\LZ_scrambled_116.jpg,LZ_scrambled\LZ_scrambled_160.jpg,LZ_scrambled\LZ_scrambled_25.jpg,None,None,None,None,None,None,None,None,None,None,None,None,1,LZ_scrambled\LZ_scrambled_194.jpg,0,l,2,21,0,23,23,23,,,,,,,,,,,,,,,,,,,,,,,,,,,,,,,,,,,,,,,184.75150459998986,None,185.80427989998134,186.80837109999266,186.78838400001405,187.79456880001817,187.7883662999957,188.79408760002116,188.78782819997286,None,189.77127129997825,190.7757642000215,190.75986639998155,None,l,1,0.645950999984052,1.0002967999898829,None,,,,,,,,,,,,,,,,,,,,,,,,,,,,,,,,,,,,,,,,,,,,001,2020_Dec_17_1752,new_STLI_updated,2020.2.10,143.90911861214985,
LZ_noise\LZ_noise_179.jpg,LZ_noise\LZ_noise_11.jpg,LZ_noise\LZ_noise_200.jpg,LZ_noise\LZ_noise_167.jpg,LZ_noise\LZ_noise_107.jpg,LZ_noise\LZ_noise_78.jpg,LZ_noise\LZ_noise_81.jpg,LZ_noise\LZ_noise_117.jpg,LZ_noise\LZ_noise_70.jpg,LZ_noise\LZ_noise_124.jpg,LZ_noise\LZ_noise_186.jpg,LZ_noise\LZ_noise_21.jpg,None,None,None,None,3,LZ_noise\LZ_noise_64.jpg,0,l,3,33,0,24,24,24,,,,,,,,,,,,,,,,,,,,,,,,,,,,,,,,,,,,,,,191.41427890001796,None,,,,,,,,,196.43909820000408,197.44249719998334,197.43384070001775,None,l,1,0.684413000009954,1.0031581000075676,None,192.52225470001576,192.82198339997558,192.8706013999763,193.1693438999937,193.2183539000107,193.52344600000652,193.51737730001332,193.82172999996692,193.87049190001562,194.17585960001452,194.2184438999975,194.52380640001502,194.5171739999787,194.82179770001676,194.8708220999688,195.17593540000962,195.2180987999891,195.52395369997248,195.51745819998905,195.82161859999178,195.87068719998933,196.1758150999667,196.2184247999685,None,,,,,,,,,,,,,,,,,,,,001,2020_Dec_17_1752,new_STLI_updated,2020.2.10,143.90911861214985,
LZ_natural\LZ_natural_114.jpg,LZ_natural\LZ_natural_147.jpg,LZ_natural\LZ_natural_125.jpg,LZ_natural\LZ_natural_29.jpg,LZ_natural\LZ_natural_43.jpg,LZ_natural\LZ_natural_189.jpg,LZ_natural\LZ_natural_209.jpg,LZ_natural\LZ_natural_236.jpg,LZ_natural\LZ_natural_53.jpg,LZ_natural\LZ_natural_210.jpg,LZ_natural\LZ_natural_159.jpg,LZ_natural\LZ_natural_137.jpg,None,None,None,None,3,LZ_natural\LZ_natural_149.jpg,0,l,1,13,0,25,25,25,,,,,,,,,,,,,,,,,,,,,,,,,,,,,,,,,,,,,,,198.1307727000094,None,,,,,,,,,203.13715759996558,204.1429630999919,204.1350488999742,None,l,1,0.7825221999664791,1.0057293999707326,None,199.2004528999678,199.50232269999105,199.54469579999568,199.84972409997135,199.8917092999909,200.19749180000508,200.1910319000017,200.49564209999517,200.54433569998946,200.84982529998524,200.89192929997807,201.19749350001803,201.19116649997886,201.49578359996667,201.544627700001,201.84981029998744,201.89225440000882,202.19739400001708,202.19095020001987,202.49538849998498,202.54467510001268,202.84985810000217,202.8920748999808,None,,,,,,,,,,,,,,,,,,,,001,2020_Dec_17_1752,new_STLI_updated,2020.2.10,143.90911861214985,
LZ_noise\LZ_noise_28.jpg,LZ_noise\LZ_noise_12.jpg,LZ_noise\LZ_noise_140.jpg,LZ_noise\LZ_noise_35.jpg,None,None,None,None,None,None,None,None,None,None,None,None,1,LZ_noise\LZ_noise_216.jpg,0,l,3,31,0,26,26,26,,,,,,,,,,,,,,,,,,,,,,,,,,,,,,,,,,,,,,,204.92889959999593,None,205.96666530001676,206.96858009998687,206.9550903000054,207.9546304999967,207.9546304999967,208.95466739998665,208.95466739998665,None,209.94285419996595,210.9485639000195,210.94066179997753,None,l,1,0.5450649000122212,1.0046651999582537,None,,,,,,,,,,,,,,,,,,,,,,,,,,,,,,,,,,,,,,,,,,,,001,2020_Dec_17_1752,new_STLI_updated,2020.2.10,143.90911861214985,
LZ_natural\LZ_natural_106.jpg,LZ_natural\LZ_natural_140.jpg,LZ_natural\LZ_natural_182.jpg,LZ_natural\LZ_natural_117.jpg,LZ_natural\LZ_natural_60.jpg,LZ_natural\LZ_natural_44.jpg,LZ_natural\LZ_natural_123.jpg,LZ_natural\LZ_natural_64.jpg,None,None,None,None,None,None,None,None,2,LZ_natural\LZ_natural_16.jpg,0,l,1,12,0,27,27,27,,,,,,,,,,,,,,,,,,,,,,,,,,,,,,,,,,,,,,,211.5002573999809,None,,,,,,,,,216.45913919998566,217.4625195999979,217.454362199991,None,l,1,0.7830395000055432,1.0009987999801524,None,,,,,,,,,,,,,,,,,,,,,,,,,212.54373879998457,212.99585539998952,213.03816669998923,213.48870829999214,213.53791569999885,213.9886510000215,214.03803220001282,214.48851830000058,214.5379244000069,214.98856009996962,215.03816050000023,215.48846269998467,215.53822220000438,215.98870190000162,216.0381571999751,None,,,,001,2020_Dec_17_1752,new_STLI_updated,2020.2.10,143.90911861214985,
LZ_natural\LZ_natural_222.jpg,LZ_natural\LZ_natural_61.jpg,LZ_natural\LZ_natural_9.jpg,LZ_natural\LZ_natural_228.jpg,LZ_natural\LZ_natural_227.jpg,LZ_natural\LZ_natural_132.jpg,LZ_natural\LZ_natural_225.jpg,LZ_natural\LZ_natural_23.jpg,LZ_natural\LZ_natural_111.jpg,LZ_natural\LZ_natural_86.jpg,LZ_natural\LZ_natural_134.jpg,LZ_natural\LZ_natural_77.jpg,None,None,None,None,3,LZ_natural\LZ_natural_134.jpg,1,a,1,13,0,28,28,28,,,,,,,,,,,,,,,,,,,,,,,,,,,,,,,,,,,,,,,218.24951140000485,None,,,,,,,,,223.25518829998327,224.26195539999753,224.25346450001234,None,a,1,1.1453359000151977,1.0060635000118054,None,219.29861140000867,219.59964109997964,219.64209009998012,219.94682720000856,219.99594579997938,220.3013797000167,220.2949621999869,220.599898400018,220.64192319998983,220.940194899973,220.9965605000034,221.3015696000075,221.29529280000133,221.60016749997158,221.64211020001676,221.94719460001215,221.99629899999127,222.30158570001367,222.29521740000928,222.60013909998816,222.6423396000173,222.94744060002267,222.99633140000515,None,,,,,,,,,,,,,,,,,,,,001,2020_Dec_17_1752,new_STLI_updated,2020.2.10,143.90911861214985,
LZ_natural\LZ_natural_31.jpg,LZ_natural\LZ_natural_214.jpg,LZ_natural\LZ_natural_96.jpg,LZ_natural\LZ_natural_92.jpg,None,None,None,None,None,None,None,None,None,None,None,None,1,LZ_natural\LZ_natural_31.jpg,1,a,1,11,0,29,29,29,,,,,,,,,,,,,,,,,,,,,,,,,,,,,,,,,,,,,,,225.41249449999304,None,226.43412890000036,227.4340640999726,227.42732929997146,228.42683259997284,228.42683259997284,229.42674029996851,229.42674029996851,None,230.42473749996861,231.42911409999942,231.42006849998143,None,a,1,0.7616063999594189,1.0033527999767102,None,,,,,,,,,,,,,,,,,,,,,,,,,,,,,,,,,,,,,,,,,,,,001,2020_Dec_17_1752,new_STLI_updated,2020.2.10,143.90911861214985,
LZ_natural\LZ_natural_229.jpg,LZ_natural\LZ_natural_66.jpg,LZ_natural\LZ_natural_163.jpg,LZ_natural\LZ_natural_188.jpg,None,None,None,None,None,None,None,None,None,None,None,None,1,LZ_natural\LZ_natural_163.jpg,1,a,1,11,0,30,30,30,,,,,,,,,,,,,,,,,,,,,,,,,,,,,,,,,,,,,,,232.19344170001568,None,233.22292009997182,234.225469099998,234.21935269999085,235.21868310001446,235.21868310001446,236.2189486999996,236.2189486999996,None,237.19854929996654,238.20012729999144,238.19092640001327,None,a,1,1.8070656000054441,1.0000826000468805,None,,,,,,,,,,,,,,,,,,,,,,,,,,,,,,,,,,,,,,,,,,,,001,2020_Dec_17_1752,new_STLI_updated,2020.2.10,143.90911861214985,
LZ_noise\LZ_noise_89.jpg,LZ_noise\LZ_noise_115.jpg,LZ_noise\LZ_noise_129.jpg,LZ_noise\LZ_noise_212.jpg,None,None,None,None,None,None,None,None,None,None,None,None,1,LZ_noise\LZ_noise_89.jpg,1,a,3,31,0,31,31,31,,,,,,,,,,,,,,,,,,,,,,,,,,,,,,,,,,,,,,,240.01366789999884,None,241.05699929996626,242.05892939999467,242.0458362000063,243.0454273999785,243.0454273999785,244.04538279998815,244.04538279998815,None,245.01910299999872,246.02600939996773,246.01751299999887,None,a,1,0.9245782000361942,1.0056587999570183,None,,,,,,,,,,,,,,,,,,,,,,,,,,,,,,,,,,,,,,,,,,,,001,2020_Dec_17_1752,new_STLI_updated,2020.2.10,143.90911861214985,
LZ_noise\LZ_noise_9.jpg,LZ_noise\LZ_noise_233.jpg,LZ_noise\LZ_noise_26.jpg,LZ_noise\LZ_noise_34.jpg,None,None,None,None,None,None,None,None,None,None,None,None,1,LZ_noise\LZ_noise_162.jpg,0,l,3,31,0,32,32,32,,,,,,,,,,,,,,,,,,,,,,,,,,,,,,,,,,,,,,,246.95221760001732,None,247.99081799999112,248.98951519996626,248.9830604000017,249.9829811999807,249.9829811999807,250.98298219998833,250.98298219998833,None,251.966256899992,252.9709898000001,252.96204159996705,None,a,0,1.044561300019268,1.0012199000339024,None,,,,,,,,,,,,,,,,,,,,,,,,,,,,,,,,,,,,,,,,,,,,001,2020_Dec_17_1752,new_STLI_updated,2020.2.10,143.90911861214985,
LZ_natural\LZ_natural_82.jpg,LZ_natural\LZ_natural_1.jpg,LZ_natural\LZ_natural_54.jpg,LZ_natural\LZ_natural_231.jpg,LZ_natural\LZ_natural_208.jpg,LZ_natural\LZ_natural_170.jpg,LZ_natural\LZ_natural_233.jpg,LZ_natural\LZ_natural_40.jpg,None,None,None,None,None,None,None,None,2,LZ_natural\LZ_natural_138.jpg,0,l,1,12,0,33,33,33,,,,,,,,,,,,,,,,,,,,,,,,,,,,,,,,,,,,,,,254.01739900000393,None,,,,,,,,,258.9706148999976,259.97794239997165,259.96923599997535,None,l,1,0.9410691999946721,1.006225400022231,None,,,,,,,,,,,,,,,,,,,,,,,,,255.0825108999852,255.5311943999841,255.57336609996855,256.0240442000213,256.07302900002105,256.52407330001006,256.5733795000124,257.02387259999523,257.07339229999343,257.52412509999704,257.5730956000043,258.0239511000109,258.0731679999735,258.5242928999942,258.5801016999758,None,,,,001,2020_Dec_17_1752,new_STLI_updated,2020.2.10,143.90911861214985,
LZ_scrambled\LZ_scrambled_16.jpg,LZ_scrambled\LZ_scrambled_51.jpg,LZ_scrambled\LZ_scrambled_5.jpg,LZ_scrambled\LZ_scrambled_196.jpg,LZ_scrambled\LZ_scrambled_28.jpg,LZ_scrambled\LZ_scrambled_56.jpg,LZ_scrambled\LZ_scrambled_221.jpg,LZ_scrambled\LZ_scrambled_3.jpg,LZ_scrambled\LZ_scrambled_88.jpg,LZ_scrambled\LZ_scrambled_61.jpg,LZ_scrambled\LZ_scrambled_114.jpg,LZ_scrambled\LZ_scrambled_192.jpg,None,None,None,None,3,LZ_scrambled\LZ_scrambled_69.jpg,0,l,2,23,0,34,34,34,,,,,,,,,,,,,,,,,,,,,,,,,,,,,,,,,,,,,,,260.92675679997774,None,,,,,,,,,265.9401431999868,266.9433016999974,266.93487970001297,None,a,0,1.5672526000416838,1.0052420000429265,None,262.2549133999855,262.55880319996504,262.58724389999406,262.89231440000003,262.93458689999534,263.23992869997164,263.23992869997164,263.5448157999781,263.58717850001995,263.8920863000094,263.93491259997245,264.23993490001885,264.23993490001885,264.54506689996924,264.587538999971,264.89202039997326,264.93482439999934,265.24007980001625,265.24007980001625,265.544829499966,265.5875895000063,265.8924508999917,None,None,,,,,,,,,,,,,,,,,,,,001,2020_Dec_17_1752,new_STLI_updated,2020.2.10,143.90911861214985,
LZ_natural\LZ_natural_186.jpg,LZ_natural\LZ_natural_20.jpg,LZ_natural\LZ_natural_124.jpg,LZ_natural\LZ_natural_178.jpg,LZ_natural\LZ_natural_175.jpg,LZ_natural\LZ_natural_239.jpg,LZ_natural\LZ_natural_118.jpg,LZ_natural\LZ_natural_193.jpg,None,None,None,None,None,None,None,None,2,LZ_natural\LZ_natural_64.jpg,0,l,1,12,0,35,35,35,,,,,,,,,,,,,,,,,,,,,,,,,,,,,,,,,,,,,,,268.5153872999945,None,,,,,,,,,273.4765360999736,274.4779487000196,274.4624802999897,None,a,0,1.5515019000158645,0.9997342000133358,None,,,,,,,,,,,,,,,,,,,,,,,,,269.55242319998797,270.00332109996816,270.0456125999917,270.49644469999475,270.5453100000159,270.99634070001775,271.0454406000208,271.49640980002005,271.5455092000193,271.9967222000123,272.04585649998626,272.496306999994,272.5456460000132,272.996213299979,273.04544000001624,None,,,,001,2020_Dec_17_1752,new_STLI_updated,2020.2.10,143.90911861214985,
LZ_scrambled\LZ_scrambled_183.jpg,LZ_scrambled\LZ_scrambled_132.jpg,LZ_scrambled\LZ_scrambled_137.jpg,LZ_scrambled\LZ_scrambled_2.jpg,LZ_scrambled\LZ_scrambled_182.jpg,LZ_scrambled\LZ_scrambled_171.jpg,LZ_scrambled\LZ_scrambled_81.jpg,LZ_scrambled\LZ_scrambled_20.jpg,None,None,None,None,None,None,None,None,2,LZ_scrambled\LZ_scrambled_171.jpg,1,a,2,22,0,36,36,36,,,,,,,,,,,,,,,,,,,,,,,,,,,,,,,,,,,,,,,276.0286534000188,None,,,,,,,,,280.9943615999655,281.9991190999863,281.9904685000074,None,a,1,0.9995567000005394,1.0025552000734024,None,,,,,,,,,,,,,,,,,,,,,,,,,277.2430740999989,277.6978492999915,277.7332681000116,278.1838741999818,278.23315390001517,278.6838143999921,278.7331798999803,279.18391010002233,279.2335060000187,279.6841920000152,279.7337165999925,280.1839199999813,280.2331633999711,280.68422649998683,280.73345280002104,None,,,,001,2020_Dec_17_1752,new_STLI_updated,2020.2.10,143.90911861214985,
LZ_scrambled\LZ_scrambled_76.jpg,LZ_scrambled\LZ_scrambled_42.jpg,LZ_scrambled\LZ_scrambled_122.jpg,LZ_scrambled\LZ_scrambled_148.jpg,LZ_scrambled\LZ_scrambled_136.jpg,LZ_scrambled\LZ_scrambled_10.jpg,LZ_scrambled\LZ_scrambled_19.jpg,LZ_scrambled\LZ_scrambled_201.jpg,None,None,None,None,None,None,None,None,2,LZ_scrambled\LZ_scrambled_202.jpg,0,l,2,22,0,37,37,37,,,,,,,,,,,,,,,,,,,,,,,,,,,,,,,,,,,,,,,283.0003644999815,None,,,,,,,,,287.9756099000224,288.9780147999991,288.96980959997745,None,l,1,2.4595263000228442,1.0047954000183381,None,,,,,,,,,,,,,,,,,,,,,,,,,284.14297330001136,284.59404970001196,284.6363499999861,285.08719890000066,285.1361264999723,285.5871323000174,285.6363815999939,286.0868657999672,286.1364999000216,286.58660229999805,286.63651889999164,287.0871964999824,287.136692399974,287.58685219998006,287.636161500006,None,,,,001,2020_Dec_17_1752,new_STLI_updated,2020.2.10,143.90911861214985,
LZ_noise\LZ_noise_203.jpg,LZ_noise\LZ_noise_234.jpg,LZ_noise\LZ_noise_76.jpg,LZ_noise\LZ_noise_29.jpg,None,None,None,None,None,None,None,None,None,None,None,None,1,LZ_noise\LZ_noise_204.jpg,0,l,3,31,0,38,38,38,,,,,,,,,,,,,,,,,,,,,,,,,,,,,,,,,,,,,,,291.43974689999595,None,292.4799928999855,293.4834931999794,293.4767767000012,294.47664539999096,294.47664539999096,295.47647160000633,295.47647160000633,None,296.4462225000025,297.451166999992,297.44175749999704,None,l,1,0.9078295000363141,1.0046202999656089,None,,,,,,,,,,,,,,,,,,,,,,,,,,,,,,,,,,,,,,,,,,,,001,2020_Dec_17_1752,new_STLI_updated,2020.2.10,143.90911861214985,
LZ_natural\LZ_natural_42.jpg,LZ_natural\LZ_natural_190.jpg,LZ_natural\LZ_natural_85.jpg,LZ_natural\LZ_natural_128.jpg,LZ_natural\LZ_natural_19.jpg,LZ_natural\LZ_natural_12.jpg,LZ_natural\LZ_natural_213.jpg,LZ_natural\LZ_natural_94.jpg,None,None,None,None,None,None,None,None,2,LZ_natural\LZ_natural_45.jpg,0,l,1,12,0,39,39,39,,,,,,,,,,,,,,,,,,,,,,,,,,,,,,,,,,,,,,,298.36423349997494,None,,,,,,,,,303.3184637000086,304.3253306999686,304.3170867000008,None,l,1,0.7765745000215247,1.0065444000065327,None,,,,,,,,,,,,,,,,,,,,,,,,,299.43164979998255,299.88573729997734,299.90683539997553,300.3579608,300.4069931000122,300.8582061000052,300.90706719999434,301.3580914000049,301.40685299999313,301.85787479998544,301.90701439999975,302.35810610000044,302.4070683000027,302.85803260002285,302.90706180001143,None,,,,001,2020_Dec_17_1752,new_STLI_updated,2020.2.10,143.90911861214985,
LZ_noise\LZ_noise_240.jpg,LZ_noise\LZ_noise_216.jpg,LZ_noise\LZ_noise_211.jpg,LZ_noise\LZ_noise_93.jpg,LZ_noise\LZ_noise_225.jpg,LZ_noise\LZ_noise_38.jpg,LZ_noise\LZ_noise_67.jpg,LZ_noise\LZ_noise_122.jpg,LZ_noise\LZ_noise_198.jpg,LZ_noise\LZ_noise_143.jpg,LZ_noise\LZ_noise_132.jpg,LZ_noise\LZ_noise_23.jpg,None,None,None,None,3,LZ_noise\LZ_noise_71.jpg,0,l,3,33,0,40,40,40,,,,,,,,,,,,,,,,,,,,,,,,,,,,,,,,,,,,,,,305.10377270000754,None,,,,,,,,,310.11589499999536,311.1183292000205,311.1087289999705,None,l,1,0.9931071000173688,1.0031928000389598,None,306.224562999967,306.5247893999913,306.53918500000145,306.84432319999905,306.88650540000526,307.1919208000181,307.1919208000181,307.49705629999517,307.5393702000147,307.8442213999806,307.8866710999864,308.1917372000171,308.1917372000171,308.4972806000151,308.539060399984,308.84433980000904,308.8866247999831,309.1919128000154,309.1919128000154,309.4971788999974,309.53910250001354,309.8445506999851,309.88626250001835,None,,,,,,,,,,,,,,,,,,,,001,2020_Dec_17_1752,new_STLI_updated,2020.2.10,143.90911861214985,
LZ_natural\LZ_natural_191.jpg,LZ_natural\LZ_natural_97.jpg,LZ_natural\LZ_natural_37.jpg,LZ_natural\LZ_natural_110.jpg,LZ_natural\LZ_natural_174.jpg,LZ_natural\LZ_natural_99.jpg,LZ_natural\LZ_natural_58.jpg,LZ_natural\LZ_natural_224.jpg,LZ_natural\LZ_natural_121.jpg,LZ_natural\LZ_natural_230.jpg,LZ_natural\LZ_natural_211.jpg,LZ_natural\LZ_natural_154.jpg,None,None,None,None,3,LZ_natural\LZ_natural_110.jpg,1,a,1,13,0,41,41,41,,,,,,,,,,,,,,,,,,,,,,,,,,,,,,,,,,,,,,,312.1116076000035,None,,,,,,,,,317.11780309997266,318.12336959998356,318.1156796999858,None,l,0,1.2344484000350349,1.0051164999604225,None,313.17652550002094,313.4763381999801,313.51848899998004,313.82332939998014,313.86535819998244,314.17129889997886,314.1648918999708,314.4691613999894,314.5183377999929,314.8233527999837,314.86520729999756,315.1708948999876,315.1644745999947,315.4692448999849,315.51850349997403,315.82328539999435,315.8651263000211,316.1644280999899,316.1644280999899,316.4695255999686,316.51851919997716,316.82331130001694,316.8653989000013,None,,,,,,,,,,,,,,,,,,,,001,2020_Dec_17_1752,new_STLI_updated,2020.2.10,143.90911861214985,
LZ_natural\LZ_natural_113.jpg,LZ_natural\LZ_natural_127.jpg,LZ_natural\LZ_natural_144.jpg,LZ_natural\LZ_natural_102.jpg,LZ_natural\LZ_natural_220.jpg,LZ_natural\LZ_natural_176.jpg,LZ_natural\LZ_natural_10.jpg,LZ_natural\LZ_natural_218.jpg,None,None,None,None,None,None,None,None,2,LZ_natural\LZ_natural_220.jpg,1,a,1,12,0,42,42,42,,,,,,,,,,,,,,,,,,,,,,,,,,,,,,,,,,,,,,,319.3644716999843,None,,,,,,,,,324.31747209996684,325.31978919997346,325.3102995000081,None,l,0,1.0160389000084251,1.0004064998938702,None,,,,,,,,,,,,,,,,,,,,,,,,,320.40241320000496,320.85144589998526,320.8936394000193,321.34427070000675,321.3934065999929,321.84437369997613,321.8933545000036,322.3442318000016,322.393421899993,322.8445999000105,322.89375489996746,323.3443649999681,323.3936960999854,323.8441744999727,323.89341159997275,None,,,,001,2020_Dec_17_1752,new_STLI_updated,2020.2.10,143.90911861214985,
LZ_scrambled\LZ_scrambled_110.jpg,LZ_scrambled\LZ_scrambled_227.jpg,LZ_scrambled\LZ_scrambled_109.jpg,LZ_scrambled\LZ_scrambled_232.jpg,None,None,None,None,None,None,None,None,None,None,None,None,1,LZ_scrambled\LZ_scrambled_99.jpg,0,l,2,21,0,43,43,43,,,,,,,,,,,,,,,,,,,,,,,,,,,,,,,,,,,,,,,326.339557099971,None,327.40593269997044,328.40720409998903,328.40137129998766,329.40095789998304,329.40095789998304,330.4010154000134,330.4010154000134,None,331.3726488999673,332.3741226000129,332.36582000000635,None,l,1,0.7118679999839514,1.0044850000413135,None,,,,,,,,,,,,,,,,,,,,,,,,,,,,,,,,,,,,,,,,,,,,001,2020_Dec_17_1752,new_STLI_updated,2020.2.10,143.90911861214985,
LZ_scrambled\LZ_scrambled_26.jpg,LZ_scrambled\LZ_scrambled_174.jpg,LZ_scrambled\LZ_scrambled_146.jpg,LZ_scrambled\LZ_scrambled_140.jpg,None,None,None,None,None,None,None,None,None,None,None,None,1,LZ_scrambled\LZ_scrambled_146.jpg,1,a,2,21,0,44,44,44,,,,,,,,,,,,,,,,,,,,,,,,,,,,,,,,,,,,,,,333.0930113000213,None,334.15770779998275,335.1575335999951,335.1514115000027,336.1573339999886,336.15123550000135,337.150916100014,337.150916100014,None,338.11821839999175,339.1249410000164,339.11627870000666,None,l,0,1.5689114999840967,1.0043301999685355,None,,,,,,,,,,,,,,,,,,,,,,,,,,,,,,,,,,,,,,,,,,,,001,2020_Dec_17_1752,new_STLI_updated,2020.2.10,143.90911861214985,
LZ_natural\LZ_natural_169.jpg,LZ_natural\LZ_natural_126.jpg,LZ_natural\LZ_natural_184.jpg,LZ_natural\LZ_natural_151.jpg,LZ_natural\LZ_natural_215.jpg,LZ_natural\LZ_natural_28.jpg,LZ_natural\LZ_natural_216.jpg,LZ_natural\LZ_natural_136.jpg,LZ_natural\LZ_natural_6.jpg,LZ_natural\LZ_natural_14.jpg,LZ_natural\LZ_natural_141.jpg,LZ_natural\LZ_natural_93.jpg,None,None,None,None,3,LZ_natural\LZ_natural_136.jpg,1,a,1,13,0,45,45,45,,,,,,,,,,,,,,,,,,,,,,,,,,,,,,,,,,,,,,,340.69846799998777,None,,,,,,,,,345.7103362000198,346.71497809997527,346.7066552999895,None,a,1,2.7313578000175767,1.0047329999506474,None,341.74366189999273,342.0458881999948,342.0883898999891,342.3928921999759,342.43514050001977,342.7406661999994,342.73415909998585,343.03874539997196,343.0878595999675,343.39292389998445,343.4350647999672,343.74058039998636,343.734091499995,344.0387775999843,344.087913699972,344.39291070000036,344.4351056999876,344.7405719999806,344.73413060000166,345.0387821000186,345.0878688999801,345.38650750002125,345.43570199998794,None,,,,,,,,,,,,,,,,,,,,001,2020_Dec_17_1752,new_STLI_updated,2020.2.10,143.90911861214985,
LZ_noise\LZ_noise_30.jpg,LZ_noise\LZ_noise_205.jpg,LZ_noise\LZ_noise_202.jpg,LZ_noise\LZ_noise_58.jpg,LZ_noise\LZ_noise_80.jpg,LZ_noise\LZ_noise_40.jpg,LZ_noise\LZ_noise_20.jpg,LZ_noise\LZ_noise_56.jpg,LZ_noise\LZ_noise_74.jpg,LZ_noise\LZ_noise_54.jpg,LZ_noise\LZ_noise_62.jpg,LZ_noise\LZ_noise_22.jpg,None,None,None,None,3,LZ_noise\LZ_noise_131.jpg,0,l,3,33,0,46,46,46,,,,,,,,,,,,,,,,,,,,,,,,,,,,,,,,,,,,,,,349.4527674000128,None,,,,,,,,,354.4597186999745,355.46603969996795,355.45641019998584,None,l,1,2.781266800011508,1.0034036999568343,None,350.5521602999652,350.85176240000874,350.900999400008,351.20601789996726,351.24776240001665,351.5536174000008,351.5469579999917,351.8517375999945,351.90109060000395,352.20606320002116,352.24794009997277,352.5533164999797,352.547301899991,352.851777200005,352.89475929999026,353.19917570002144,353.2482829000219,353.5534492000006,353.547214399965,353.85139289998915,353.90102210000623,354.20579540001927,354.2479820000008,None,,,,,,,,,,,,,,,,,,,,001,2020_Dec_17_1752,new_STLI_updated,2020.2.10,143.90911861214985,
LZ_natural\LZ_natural_72.jpg,LZ_natural\LZ_natural_149.jpg,LZ_natural\LZ_natural_52.jpg,LZ_natural\LZ_natural_74.jpg,LZ_natural\LZ_natural_181.jpg,LZ_natural\LZ_natural_56.jpg,LZ_natural\LZ_natural_98.jpg,LZ_natural\LZ_natural_47.jpg,None,None,None,None,None,None,None,None,2,LZ_natural\LZ_natural_52.jpg,1,a,1,12,0,47,47,47,,,,,,,,,,,,,,,,,,,,,,,,,,,,,,,,,,,,,,,358.25129889999516,None,,,,,,,,,363.2070444999845,364.20852759998525,364.1995614999905,None,a,1,0.9116216000402346,1.0005073000211269,None,,,,,,,,,,,,,,,,,,,,,,,,,359.2731777000008,359.72694299998693,359.7692320999922,360.21974959998624,360.26890809996985,360.7199685999658,360.7692455999786,361.21971209999174,361.2692873000051,361.7199405999854,361.7691019999911,362.2197288000025,362.2690383999725,362.71959100000095,362.7687175999745,None,,,,001,2020_Dec_17_1752,new_STLI_updated,2020.2.10,143.90911861214985,
LZ_scrambled\LZ_scrambled_188.jpg,LZ_scrambled\LZ_scrambled_170.jpg,LZ_scrambled\LZ_scrambled_157.jpg,LZ_scrambled\LZ_scrambled_78.jpg,None,None,None,None,None,None,None,None,None,None,None,None,1,LZ_scrambled\LZ_scrambled_157.jpg,1,a,2,21,0,48,48,48,,,,,,,,,,,,,,,,,,,,,,,,,,,,,,,,,,,,,,,365.11992550001014,None,366.248121200013,367.2478892999934,367.2349703999935,368.23436429997673,368.23436429997673,369.2343313000165,369.2343313000165,None,370.13772090000566,371.1395905999816,371.130365399993,None,l,0,0.6272695999941789,1.0016007000231184,None,,,,,,,,,,,,,,,,,,,,,,,,,,,,,,,,,,,,,,,,,,,,001,2020_Dec_17_1752,new_STLI_updated,2020.2.10,143.90911861214985,
LZ_scrambled\LZ_scrambled_23.jpg,LZ_scrambled\LZ_scrambled_33.jpg,LZ_scrambled\LZ_scrambled_176.jpg,LZ_scrambled\LZ_scrambled_209.jpg,LZ_scrambled\LZ_scrambled_141.jpg,LZ_scrambled\LZ_scrambled_219.jpg,LZ_scrambled\LZ_scrambled_231.jpg,LZ_scrambled\LZ_scrambled_91.jpg,None,None,None,None,None,None,None,None,2,LZ_scrambled\LZ_scrambled_33.jpg,1,a,2,22,0,49,49,49,,,,,,,,,,,,,,,,,,,,,,,,,,,,,,,,,,,,,,,371.77151579997735,None,,,,,,,,,376.7381477999734,377.7429600000032,377.7345691000228,None,l,0,1.1427869999897666,1.004162700031884,None,,,,,,,,,,,,,,,,,,,,,,,,,372.9613140000147,373.41465559997596,373.45019299996784,373.90045309998095,373.94296209997265,374.3937858999707,374.45018619997427,374.9004189000116,374.94329480000306,375.39353990001837,375.450113400002,375.9010317000211,375.9432341000065,376.3936844000127,376.4429257999873,None,,,,001,2020_Dec_17_1752,new_STLI_updated,2020.2.10,143.90911861214985,
LZ_noise\LZ_noise_100.jpg,LZ_noise\LZ_noise_197.jpg,LZ_noise\LZ_noise_105.jpg,LZ_noise\LZ_noise_1.jpg,LZ_noise\LZ_noise_223.jpg,LZ_noise\LZ_noise_161.jpg,LZ_noise\LZ_noise_104.jpg,LZ_noise\LZ_noise_111.jpg,None,None,None,None,None,None,None,None,2,LZ_noise\LZ_noise_230.jpg,0,l,3,32,0,50,50,50,,,,,,,,,,,,,,,,,,,,,,,,,,,,,,,,,,,,,,,378.88950629998,None,,,,,,,,,383.8582896000007,384.8613392999978,384.8525725000072,None,l,1,1.7933254999807104,1.0030045000021346,None,,,,,,,,,,,,,,,,,,,,,,,,,379.9876128999749,380.4422617999953,380.46370339998975,380.9146460000193,380.9641126000206,381.4146152000176,381.46348759997636,381.91446130000986,381.9634603000013,382.4145077000139,382.463734399993,382.9149834999698,382.96382529998664,383.4145938999718,383.463657299988,None,,,,001,2020_Dec_17_1752,new_STLI_updated,2020.2.10,143.90911861214985,
LZ_noise\LZ_noise_127.jpg,LZ_noise\LZ_noise_61.jpg,LZ_noise\LZ_noise_48.jpg,LZ_noise\LZ_noise_41.jpg,LZ_noise\LZ_noise_139.jpg,LZ_noise\LZ_noise_208.jpg,LZ_noise\LZ_noise_134.jpg,LZ_noise\LZ_noise_152.jpg,LZ_noise\LZ_noise_174.jpg,LZ_noise\LZ_noise_145.jpg,LZ_noise\LZ_noise_172.jpg,LZ_noise\LZ_noise_98.jpg,None,None,None,None,3,LZ_noise\LZ_noise_41.jpg,1,a,3,33,0,51,51,51,,,,,,,,,,,,,,,,,,,,,,,,,,,,,,,,,,,,,,,386.6554327000049,None,,,,,,,,,391.6626141999732,392.6676316999947,392.65863329998683,None,l,0,0.7151171999867074,1.000800799985882,None,387.74307510000654,388.04673719999846,388.08881410001777,388.39399369998137,388.43602929997724,388.7413697000011,388.7347959000035,389.03968180000084,389.0886390999658,389.3937823000015,389.4363219999941,389.7414181000204,389.73484519997146,390.0398734000046,390.088969799981,390.3941439000191,390.43590639997274,390.74155239999527,390.73481419996824,391.03946910001105,391.0888317999779,391.39397869998356,391.43603360001,None,,,,,,,,,,,,,,,,,,,,001,2020_Dec_17_1752,new_STLI_updated,2020.2.10,143.90911861214985,
LZ_noise\LZ_noise_183.jpg,LZ_noise\LZ_noise_37.jpg,LZ_noise\LZ_noise_88.jpg,LZ_noise\LZ_noise_79.jpg,LZ_noise\LZ_noise_8.jpg,LZ_noise\LZ_noise_24.jpg,LZ_noise\LZ_noise_180.jpg,LZ_noise\LZ_noise_63.jpg,None,None,None,None,None,None,None,None,2,LZ_noise\LZ_noise_183.jpg,1,a,3,32,0,52,52,52,,,,,,,,,,,,,,,,,,,,,,,,,,,,,,,,,,,,,,,393.3853151000221,None,,,,,,,,,398.3444221999962,399.34784649999347,399.33191790001,None,l,0,1.6179934999672696,0.9995906000258401,None,,,,,,,,,,,,,,,,,,,,,,,,,394.44608570000855,394.9008088000119,394.9432127000182,395.3939539999701,395.4429481999832,395.8937646999839,395.9430185999954,396.39416029996937,396.44303139997646,396.8941876000026,396.9430250999867,397.39413600001717,397.4429393999744,397.89400019997265,397.94331780000357,None,,,,001,2020_Dec_17_1752,new_STLI_updated,2020.2.10,143.90911861214985,
LZ_natural\LZ_natural_38.jpg,LZ_natural\LZ_natural_68.jpg,LZ_natural\LZ_natural_133.jpg,LZ_natural\LZ_natural_205.jpg,LZ_natural\LZ_natural_199.jpg,LZ_natural\LZ_natural_51.jpg,LZ_natural\LZ_natural_116.jpg,LZ_natural\LZ_natural_142.jpg,LZ_natural\LZ_natural_187.jpg,LZ_natural\LZ_natural_152.jpg,LZ_natural\LZ_natural_69.jpg,LZ_natural\LZ_natural_185.jpg,None,None,None,None,3,LZ_natural\LZ_natural_127.jpg,0,l,1,13,0,53,53,53,,,,,,,,,,,,,,,,,,,,,,,,,,,,,,,,,,,,,,,400.9606389999972,None,,,,,,,,,405.96930639998754,406.97360690002097,406.95731680002064,None,l,1,1.0883620999520645,0.9998167000594549,None,402.03258130000904,402.3317703999928,402.37377170001855,402.6785938999965,402.72068490000675,403.02658239996526,403.0201903000125,403.32437509996817,403.37387359997956,403.67856450000545,403.7208510999917,404.026365800004,404.02026309998473,404.3243218999705,404.37359109998215,404.6790067999973,404.721078499977,405.0265827999683,405.020311100001,405.3244843999855,405.37337789998855,405.6784851999837,405.7208344999817,None,,,,,,,,,,,,,,,,,,,,001,2020_Dec_17_1752,new_STLI_updated,2020.2.10,143.90911861214985,
LZ_scrambled\LZ_scrambled_94.jpg,LZ_scrambled\LZ_scrambled_224.jpg,LZ_scrambled\LZ_scrambled_154.jpg,LZ_scrambled\LZ_scrambled_185.jpg,None,None,None,None,None,None,None,None,None,None,None,None,1,LZ_scrambled\LZ_scrambled_81.jpg,0,l,2,21,0,54,54,54,,,,,,,,,,,,,,,,,,,,,,,,,,,,,,,,,,,,,,,408.0567747000023,None,409.1351505999919,410.1380595000228,410.13104549999116,411.1309079999919,411.1309079999919,412.1311610999983,412.1311610999983,None,413.0799319000216,414.0842903999728,414.0757162999944,None,l,1,0.7941403000149876,1.0012285000411794,None,,,,,,,,,,,,,,,,,,,,,,,,,,,,,,,,,,,,,,,,,,,,001,2020_Dec_17_1752,new_STLI_updated,2020.2.10,143.90911861214985,
LZ_noise\LZ_noise_144.jpg,LZ_noise\LZ_noise_239.jpg,LZ_noise\LZ_noise_160.jpg,LZ_noise\LZ_noise_4.jpg,LZ_noise\LZ_noise_97.jpg,LZ_noise\LZ_noise_185.jpg,LZ_noise\LZ_noise_220.jpg,LZ_noise\LZ_noise_103.jpg,None,None,None,None,None,None,None,None,2,LZ_noise\LZ_noise_239.jpg,1,a,3,32,0,55,55,55,,,,,,,,,,,,,,,,,,,,,,,,,,,,,,,,,,,,,,,414.8842405999894,None,,,,,,,,,419.8460350999958,420.84873269998934,420.839375999989,None,l,0,0.454486700007692,1.000211299979128,None,,,,,,,,,,,,,,,,,,,,,,,,,415.9533987999894,416.4079885999672,416.45033319998765,416.9015036000055,416.950473600009,417.4010938999709,417.4504733000067,417.90126989997225,417.9504414999974,418.40120580000803,418.4503945999895,418.9015087999869,418.95052050001686,419.4014316999819,419.45054609997896,None,,,,001,2020_Dec_17_1752,new_STLI_updated,2020.2.10,143.90911861214985,
LZ_natural\LZ_natural_240.jpg,LZ_natural\LZ_natural_16.jpg,LZ_natural\LZ_natural_18.jpg,LZ_natural\LZ_natural_45.jpg,None,None,None,None,None,None,None,None,None,None,None,None,1,LZ_natural\LZ_natural_91.jpg,0,l,1,11,0,56,56,56,,,,,,,,,,,,,,,,,,,,,,,,,,,,,,,,,,,,,,,421.31152210000437,None,422.34009870002046,423.33930619998137,423.3260580999777,424.3255555999931,424.3255555999931,425.3256580000161,425.3256580000161,None,426.3191712999833,427.32668009999907,427.318377699994,None,l,1,0.6310731000266969,1.006316400016658,None,,,,,,,,,,,,,,,,,,,,,,,,,,,,,,,,,,,,,,,,,,,,001,2020_Dec_17_1752,new_STLI_updated,2020.2.10,143.90911861214985,
LZ_natural\LZ_natural_138.jpg,LZ_natural\LZ_natural_33.jpg,LZ_natural\LZ_natural_158.jpg,LZ_natural\LZ_natural_217.jpg,LZ_natural\LZ_natural_49.jpg,LZ_natural\LZ_natural_27.jpg,LZ_natural\LZ_natural_156.jpg,LZ_natural\LZ_natural_153.jpg,None,None,None,None,None,None,None,None,2,LZ_natural\LZ_natural_4.jpg,0,l,1,12,0,57,57,57,,,,,,,,,,,,,,,,,,,,,,,,,,,,,,,,,,,,,,,427.96320769999875,None,,,,,,,,,432.9172122000018,433.9251516999793,433.91576820000773,None,l,1,0.6810307999840006,1.0053201999980956,None,,,,,,,,,,,,,,,,,,,,,,,,,429.0028016999713,429.4569391999976,429.49935930001084,429.9499541000114,429.9987767999992,430.4496469000005,430.49940219998825,430.9497514999821,430.9990686000092,431.4500743999961,431.49882420001086,431.9499658999848,431.9993275000015,432.4502116999938,432.4992536000209,None,,,,001,2020_Dec_17_1752,new_STLI_updated,2020.2.10,143.90911861214985,
LZ_scrambled\LZ_scrambled_64.jpg,LZ_scrambled\LZ_scrambled_82.jpg,LZ_scrambled\LZ_scrambled_53.jpg,LZ_scrambled\LZ_scrambled_75.jpg,LZ_scrambled\LZ_scrambled_173.jpg,LZ_scrambled\LZ_scrambled_206.jpg,LZ_scrambled\LZ_scrambled_236.jpg,LZ_scrambled\LZ_scrambled_17.jpg,None,None,None,None,None,None,None,None,2,LZ_scrambled\LZ_scrambled_64.jpg,1,a,2,22,0,58,58,58,,,,,,,,,,,,,,,,,,,,,,,,,,,,,,,,,,,,,,,434.60645439999644,None,,,,,,,,,439.5817620999878,440.5841224999749,440.5757819999708,None,l,0,0.44574029999785125,1.0054059999529272,None,,,,,,,,,,,,,,,,,,,,,,,,,435.7996814000071,436.24853029998485,436.2909359000041,436.7415895999875,436.7909922999679,437.24151730001904,437.29102559998864,437.741508600011,437.7909788999823,438.2414135999861,438.29113759996835,438.74158610001905,438.79102920001606,439.24153639998985,439.29124320001574,None,,,,001,2020_Dec_17_1752,new_STLI_updated,2020.2.10,143.90911861214985,
LZ_scrambled\LZ_scrambled_32.jpg,LZ_scrambled\LZ_scrambled_72.jpg,LZ_scrambled\LZ_scrambled_89.jpg,LZ_scrambled\LZ_scrambled_213.jpg,LZ_scrambled\LZ_scrambled_24.jpg,LZ_scrambled\LZ_scrambled_212.jpg,LZ_scrambled\LZ_scrambled_159.jpg,LZ_scrambled\LZ_scrambled_74.jpg,LZ_scrambled\LZ_scrambled_1.jpg,LZ_scrambled\LZ_scrambled_125.jpg,LZ_scrambled\LZ_scrambled_111.jpg,LZ_scrambled\LZ_scrambled_43.jpg,None,None,None,None,3,LZ_scrambled\LZ_scrambled_103.jpg,0,l,2,23,0,59,59,59,,,,,,,,,,,,,,,,,,,,,,,,,,,,,,,,,,,,,,,441.03227289998904,None,,,,,,,,,446.04696020000847,447.050984099973,447.0411324999877,None,l,1,0.5079142999602482,1.0051751999999397,None,442.3230992999743,442.62358000001404,442.6593217999907,442.9638015999808,443.00646259996574,443.312254199991,443.312254199991,443.61677630001213,443.6594338999712,443.9640843999805,444.00668039999437,444.31190480000805,444.31190480000805,444.61666010000044,444.65943840000546,444.9641925999895,445.0065581999952,445.3122172000003,445.3122172000003,445.61692870000843,445.65923659998225,445.96390289999545,446.00670859997626,None,,,,,,,,,,,,,,,,,,,,001,2020_Dec_17_1752,new_STLI_updated,2020.2.10,143.90911861214985,
LZ_noise\LZ_noise_99.jpg,LZ_noise\LZ_noise_168.jpg,LZ_noise\LZ_noise_189.jpg,LZ_noise\LZ_noise_154.jpg,LZ_noise\LZ_noise_96.jpg,LZ_noise\LZ_noise_229.jpg,LZ_noise\LZ_noise_227.jpg,LZ_noise\LZ_noise_43.jpg,None,None,None,None,None,None,None,None,2,LZ_noise\LZ_noise_119.jpg,0,l,3,32,0,60,60,60,,,,,,,,,,,,,,,,,,,,,,,,,,,,,,,,,,,,,,,447.5634097000002,None,,,,,,,,,452.5242051999667,453.52960509998957,453.52016339998227,None,l,1,0.42932549997931346,1.0051594999385998,None,,,,,,,,,,,,,,,,,,,,,,,,,448.66072629997507,449.10990629997104,449.13856310001574,449.589309700008,449.63809989998117,450.08897919999436,450.1381067999755,450.5893478000071,450.6381733000162,451.08905579999555,451.13853559998097,451.5892632000032,451.63818219996756,452.08917069999734,452.1385677999933,None,,,,001,2020_Dec_17_1752,new_STLI_updated,2020.2.10,143.90911861214985,
LZ_scrambled\LZ_scrambled_119.jpg,LZ_scrambled\LZ_scrambled_112.jpg,LZ_scrambled\LZ_scrambled_153.jpg,LZ_scrambled\LZ_scrambled_14.jpg,None,None,None,None,None,None,None,None,None,None,None,None,1,LZ_scrambled\LZ_scrambled_153.jpg,1,a,2,21,0,61,61,61,,,,,,,,,,,,,,,,,,,,,,,,,,,,,,,,,,,,,,,453.96011949999956,None,455.01904959999956,456.0200082999654,456.0138445000048,457.01363629999105,457.01363629999105,458.01361610001186,458.01361610001186,None,458.9831102999742,459.98781069996767,459.9791686999961,None,a,1,1.6258896000217646,1.0031377000268549,None,,,,,,,,,,,,,,,,,,,,,,,,,,,,,,,,,,,,,,,,,,,,001,2020_Dec_17_1752,new_STLI_updated,2020.2.10,143.90911861214985,
LZ_noise\LZ_noise_138.jpg,LZ_noise\LZ_noise_51.jpg,LZ_noise\LZ_noise_112.jpg,LZ_noise\LZ_noise_213.jpg,LZ_noise\LZ_noise_19.jpg,LZ_noise\LZ_noise_238.jpg,LZ_noise\LZ_noise_230.jpg,LZ_noise\LZ_noise_84.jpg,LZ_noise\LZ_noise_120.jpg,LZ_noise\LZ_noise_92.jpg,LZ_noise\LZ_noise_123.jpg,LZ_noise\LZ_noise_16.jpg,None,None,None,None,3,LZ_noise\LZ_noise_92.jpg,1,a,3,33,0,62,62,62,,,,,,,,,,,,,,,,,,,,,,,,,,,,,,,,,,,,,,,461.6153204999864,None,,,,,,,,,466.6215871999739,467.6268750000163,467.6179143000045,471.6202382000047,a,1,4.018704199988861,1.0052363999420777,None,462.7505952999927,463.05450829997426,463.0687853000127,463.37424779997673,463.41647729999386,463.72156590002123,463.7152015999891,464.019811199978,464.06892839999637,464.3739179999684,464.41618940001354,464.72158599999966,464.715309399995,465.01952440000605,465.0688785999664,465.37427289999323,465.41639789997134,465.7217856000061,465.71533600002294,466.01981500000693,466.0689629999688,466.37404929997865,466.4159841000219,None,,,,,,,,,,,,,,,,,,,,001,2020_Dec_17_1752,new_STLI_updated,2020.2.10,143.90911861214985,
LZ_noise\LZ_noise_90.jpg,LZ_noise\LZ_noise_159.jpg,LZ_noise\LZ_noise_13.jpg,LZ_noise\LZ_noise_52.jpg,None,None,None,None,None,None,None,None,None,None,None,None,1,LZ_noise\LZ_noise_159.jpg,1,a,3,31,0,63,63,63,,,,,,,,,,,,,,,,,,,,,,,,,,,,,,,,,,,,,,,471.648148200009,None,472.6935866000131,473.69389900000533,473.68073289998574,474.68036240001675,474.68036240001675,475.68025629996555,475.68025629996555,None,476.6539143999689,477.6618400000152,477.6549222000176,None,a,1,3.1363669999991544,0.9990013999631628,None,,,,,,,,,,,,,,,,,,,,,,,,,,,,,,,,,,,,,,,,,,,,001,2020_Dec_17_1752,new_STLI_updated,2020.2.10,143.90911861214985,
LZ_scrambled\LZ_scrambled_71.jpg,LZ_scrambled\LZ_scrambled_49.jpg,LZ_scrambled\LZ_scrambled_214.jpg,LZ_scrambled\LZ_scrambled_87.jpg,LZ_scrambled\LZ_scrambled_113.jpg,LZ_scrambled\LZ_scrambled_199.jpg,LZ_scrambled\LZ_scrambled_163.jpg,LZ_scrambled\LZ_scrambled_46.jpg,None,None,None,None,None,None,None,None,2,LZ_scrambled\LZ_scrambled_84.jpg,0,l,2,22,0,64,64,64,,,,,,,,,,,,,,,,,,,,,,,,,,,,,,,,,,,,,,,480.79436519998126,None,,,,,,,,,485.7681925999932,486.77276780002285,486.76401970000006,None,a,0,1.7138362000114284,1.0025953000294976,None,,,,,,,,,,,,,,,,,,,,,,,,,481.9592927999911,482.4090484000044,482.4514623999712,482.9019935000106,482.9514047999983,483.4022745999973,483.45162989996606,483.90170200000284,483.951023600006,484.4019627000089,484.4515299000195,484.90210269996896,484.9511190999765,485.4021418999764,485.4512349999859,None,,,,001,2020_Dec_17_1752,new_STLI_updated,2020.2.10,143.90911861214985,
LZ_noise\LZ_noise_125.jpg,LZ_noise\LZ_noise_199.jpg,LZ_noise\LZ_noise_169.jpg,LZ_noise\LZ_noise_170.jpg,LZ_noise\LZ_noise_7.jpg,LZ_noise\LZ_noise_176.jpg,LZ_noise\LZ_noise_217.jpg,LZ_noise\LZ_noise_141.jpg,None,None,None,None,None,None,None,None,2,LZ_noise\LZ_noise_170.jpg,1,a,3,32,0,65,65,65,,,,,,,,,,,,,,,,,,,,,,,,,,,,,,,,,,,,,,,488.4902883999748,None,,,,,,,,,493.4513177999761,494.45309460000135,494.4376274999813,None,a,1,2.5439349000225775,1.000373099988792,None,,,,,,,,,,,,,,,,,,,,,,,,,489.5868091000011,490.0408909000107,490.06236460001674,490.51338839996606,490.56224790000124,491.01306889997795,491.062206099974,491.51308080001036,491.56256479996955,492.01316309999675,492.06220290000783,492.513406699989,492.5622343000141,493.01341329998104,493.06243230000837,None,,,,001,2020_Dec_17_1752,new_STLI_updated,2020.2.10,143.90911861214985,
LZ_natural\LZ_natural_2.jpg,LZ_natural\LZ_natural_5.jpg,LZ_natural\LZ_natural_87.jpg,LZ_natural\LZ_natural_90.jpg,LZ_natural\LZ_natural_162.jpg,LZ_natural\LZ_natural_180.jpg,LZ_natural\LZ_natural_201.jpg,LZ_natural\LZ_natural_4.jpg,None,None,None,None,None,None,None,None,2,LZ_natural\LZ_natural_90.jpg,1,a,1,12,0,66,66,66,,,,,,,,,,,,,,,,,,,,,,,,,,,,,,,,,,,,,,,496.99195990001317,None,,,,,,,,,501.94878729997436,502.9537344999844,502.94454990001395,None,l,0,2.364687099994626,1.0019177999929525,None,,,,,,,,,,,,,,,,,,,,,,,,,498.01969330001157,498.47149419999914,498.5140405999846,498.96484670002246,499.0139839000185,499.46474640001543,499.5138227000134,499.96496239997214,500.0141478999867,500.46496700000716,500.5140849999734,500.9648967999965,501.0138871999807,501.46487359999446,501.5139753000112,None,,,,001,2020_Dec_17_1752,new_STLI_updated,2020.2.10,143.90911861214985,
LZ_natural\LZ_natural_200.jpg,LZ_natural\LZ_natural_62.jpg,LZ_natural\LZ_natural_8.jpg,LZ_natural\LZ_natural_198.jpg,LZ_natural\LZ_natural_179.jpg,LZ_natural\LZ_natural_146.jpg,LZ_natural\LZ_natural_219.jpg,LZ_natural\LZ_natural_139.jpg,LZ_natural\LZ_natural_15.jpg,LZ_natural\LZ_natural_76.jpg,LZ_natural\LZ_natural_81.jpg,LZ_natural\LZ_natural_41.jpg,None,None,None,None,3,LZ_natural\LZ_natural_164.jpg,0,l,1,13,0,67,67,67,,,,,,,,,,,,,,,,,,,,,,,,,,,,,,,,,,,,,,,505.32296969997697,None,,,,,,,,,510.32843739999225,511.3351560999872,511.3265549999778,None,a,0,2.39087219996145,1.0062000999459997,None,506.40302540000994,506.7076903000125,506.7433569999994,507.0479833999998,507.0974551999825,507.40272989997175,507.39626329997554,507.70109340001363,507.7434576000087,508.04822749999585,508.09725920000346,508.40296430001035,508.39627829997335,508.7009977999842,508.74316279997583,509.0480418999796,509.0971195999882,509.39602480002213,509.39602480002213,509.7006393999909,509.7428027999704,510.04792549996637,510.0970481999684,None,,,,,,,,,,,,,,,,,,,,001,2020_Dec_17_1752,new_STLI_updated,2020.2.10,143.90911861214985,
LZ_scrambled\LZ_scrambled_162.jpg,LZ_scrambled\LZ_scrambled_142.jpg,LZ_scrambled\LZ_scrambled_229.jpg,LZ_scrambled\LZ_scrambled_210.jpg,None,None,None,None,None,None,None,None,None,None,None,None,1,LZ_scrambled\LZ_scrambled_9.jpg,0,l,2,21,0,68,68,68,,,,,,,,,,,,,,,,,,,,,,,,,,,,,,,,,,,,,,,513.7313780999975,None,514.8271957999677,515.8267609999748,515.8199980999925,516.8201319000218,516.8201319000218,517.8195198000176,517.8195198000176,None,518.7577346999897,519.759420700022,519.750354000018,None,l,1,1.6784821000183001,1.0029207000043243,None,,,,,,,,,,,,,,,,,,,,,,,,,,,,,,,,,,,,,,,,,,,,001,2020_Dec_17_1752,new_STLI_updated,2020.2.10,143.90911861214985,
LZ_natural\LZ_natural_30.jpg,LZ_natural\LZ_natural_150.jpg,LZ_natural\LZ_natural_148.jpg,LZ_natural\LZ_natural_237.jpg,LZ_natural\LZ_natural_105.jpg,LZ_natural\LZ_natural_50.jpg,LZ_natural\LZ_natural_22.jpg,LZ_natural\LZ_natural_223.jpg,None,None,None,None,None,None,None,None,2,LZ_natural\LZ_natural_148.jpg,1,a,1,12,0,69,69,69,,,,,,,,,,,,,,,,,,,,,,,,,,,,,,,,,,,,,,,521.4414350999868,None,,,,,,,,,526.4032155000023,527.4057955999742,527.3963172999793,531.3962942999788,l,0,5.92838210001355,1.0008132999646477,None,,,,,,,,,,,,,,,,,,,,,,,,,522.486578800017,522.9373612999916,522.9796875999891,523.4301628000103,523.4793256999692,523.9300339000183,523.9794255999732,524.4302889999817,524.4794602000038,524.9302638000227,524.9795565999812,525.4300652999664,525.4796907000127,525.9303491999744,525.9797411999898,None,,,,001,2020_Dec_17_1752,new_STLI_updated,2020.2.10,143.90911861214985,
LZ_scrambled\LZ_scrambled_186.jpg,LZ_scrambled\LZ_scrambled_38.jpg,LZ_scrambled\LZ_scrambled_55.jpg,LZ_scrambled\LZ_scrambled_6.jpg,None,None,None,None,None,None,None,None,None,None,None,None,1,LZ_scrambled\LZ_scrambled_186.jpg,1,a,2,21,0,70,70,70,,,,,,,,,,,,,,,,,,,,,,,,,,,,,,,,,,,,,,,533.3355297999806,None,534.4136436000117,535.4169166000211,535.4107262999751,536.4103452999843,536.4103452999843,537.4105667999829,537.4105667999829,None,538.3557043999899,539.3565994999954,539.3480023000157,None,a,1,2.5449165999889374,1.0034445999772288,None,,,,,,,,,,,,,,,,,,,,,,,,,,,,,,,,,,,,,,,,,,,,001,2020_Dec_17_1752,new_STLI_updated,2020.2.10,143.90911861214985,
LZ_natural\LZ_natural_238.jpg,LZ_natural\LZ_natural_71.jpg,LZ_natural\LZ_natural_155.jpg,LZ_natural\LZ_natural_129.jpg,LZ_natural\LZ_natural_89.jpg,LZ_natural\LZ_natural_221.jpg,LZ_natural\LZ_natural_55.jpg,LZ_natural\LZ_natural_172.jpg,None,None,None,None,None,None,None,None,2,LZ_natural\LZ_natural_155.jpg,1,a,1,12,0,71,71,71,,,,,,,,,,,,,,,,,,,,,,,,,,,,,,,,,,,,,,,541.9065987999784,None,,,,,,,,,546.8698833999806,547.8732368000201,547.8628858000156,None,l,0,3.500407300016377,1.0069970000186004,None,,,,,,,,,,,,,,,,,,,,,,,,,542.9498167000129,543.4031330000143,543.4451115999836,543.8959562999662,543.9449442999903,544.3957753999857,544.4449785000179,544.8959719999693,544.9449907999951,545.3960846000118,545.4451570999809,545.8959628000157,545.9449902999913,546.3958644999657,546.4452927999664,None,,,,001,2020_Dec_17_1752,new_STLI_updated,2020.2.10,143.90911861214985,
LZ_scrambled\LZ_scrambled_121.jpg,LZ_scrambled\LZ_scrambled_184.jpg,LZ_scrambled\LZ_scrambled_225.jpg,LZ_scrambled\LZ_scrambled_193.jpg,None,None,None,None,None,None,None,None,None,None,None,None,1,LZ_scrambled\LZ_scrambled_22.jpg,0,l,2,21,0,72,72,72,,,,,,,,,,,,,,,,,,,,,,,,,,,,,,,,,,,,,,,551.3737667999812,None,552.4473862000159,553.4522187999683,553.438695400022,554.4382810000097,554.4382810000097,555.4385294999811,555.4385294999811,None,556.3964122000034,557.3984980999958,557.3900195999886,None,l,1,3.3430798000190407,1.0051256999722682,None,,,,,,,,,,,,,,,,,,,,,,,,,,,,,,,,,,,,,,,,,,,,001,2020_Dec_17_1752,new_STLI_updated,2020.2.10,143.90911861214985,
LZ_natural\LZ_natural_17.jpg,LZ_natural\LZ_natural_157.jpg,LZ_natural\LZ_natural_225.jpg,LZ_natural\LZ_natural_140.jpg,None,None,None,None,None,None,None,None,None,None,None,None,1,LZ_natural\LZ_natural_225.jpg,1,a,1,11,0,73,73,73,,,,,,,,,,,,,,,,,,,,,,,,,,,,,,,,,,,,,,,560.7483251999947,None,561.781550100015,562.785571800021,562.7651235999656,563.7645846999949,563.7645846999949,564.76486689999,564.76486689999,None,565.7547409000108,566.7590256999829,566.7507565999986,None,a,1,1.493998999998439,1.0046434999676421,None,,,,,,,,,,,,,,,,,,,,,,,,,,,,,,,,,,,,,,,,,,,,001,2020_Dec_17_1752,new_STLI_updated,2020.2.10,143.90911861214985,
LZ_natural\LZ_natural_100.jpg,LZ_natural\LZ_natural_186.jpg,LZ_natural\LZ_natural_180.jpg,LZ_natural\LZ_natural_34.jpg,None,None,None,None,None,None,None,None,None,None,None,None,1,LZ_natural\LZ_natural_224.jpg,0,l,1,11,0,74,74,74,,,,,,,,,,,,,,,,,,,,,,,,,,,,,,,,,,,,,,,568.2603073000209,None,569.2701252999832,570.2718857,570.2582343000104,571.2573190999683,571.2649159000139,572.2646946000168,572.2586433999822,None,573.2625327999704,574.2670166000025,574.2579578000004,None,a,0,3.4750195000087842,1.0067094000405632,None,,,,,,,,,,,,,,,,,,,,,,,,,,,,,,,,,,,,,,,,,,,,001,2020_Dec_17_1752,new_STLI_updated,2020.2.10,143.90911861214985,
LZ_scrambled\LZ_scrambled_22.jpg,LZ_scrambled\LZ_scrambled_204.jpg,LZ_scrambled\LZ_scrambled_37.jpg,LZ_scrambled\LZ_scrambled_106.jpg,LZ_scrambled\LZ_scrambled_166.jpg,LZ_scrambled\LZ_scrambled_197.jpg,LZ_scrambled\LZ_scrambled_172.jpg,LZ_scrambled\LZ_scrambled_36.jpg,None,None,None,None,None,None,None,None,2,LZ_scrambled\LZ_scrambled_204.jpg,1,a,2,22,0,75,75,75,,,,,,,,,,,,,,,,,,,,,,,,,,,,,,,,,,,,,,,577.7476375999977,None,,,,,,,,,582.7217814999749,583.726986899972,583.7193464000011,None,a,1,3.576028999988921,0.9990506999893114,None,,,,,,,,,,,,,,,,,,,,,,,,,578.954456300009,579.4034323999658,579.4456351000117,579.8962095999741,579.9456961000105,580.3964399999822,580.4457893000217,580.8964846999734,580.9458522999776,581.3965839999728,581.4457801000099,581.8963530000183,581.9457321999944,582.3965721999994,582.4459151999908,None,,,,001,2020_Dec_17_1752,new_STLI_updated,2020.2.10,143.90911861214985,
LZ_noise\LZ_noise_39.jpg,LZ_noise\LZ_noise_147.jpg,LZ_noise\LZ_noise_187.jpg,LZ_noise\LZ_noise_171.jpg,LZ_noise\LZ_noise_18.jpg,LZ_noise\LZ_noise_101.jpg,LZ_noise\LZ_noise_215.jpg,LZ_noise\LZ_noise_194.jpg,LZ_noise\LZ_noise_5.jpg,LZ_noise\LZ_noise_102.jpg,LZ_noise\LZ_noise_60.jpg,LZ_noise\LZ_noise_196.jpg,None,None,None,None,3,LZ_noise\LZ_noise_60.jpg,1,a,3,33,0,76,76,76,,,,,,,,,,,,,,,,,,,,,,,,,,,,,,,,,,,,,,,587.29670180002,None,,,,,,,,,592.3067802999867,593.3079699999653,593.2995354000013,None,a,1,0.9535022000200115,0.9999658000306226,None,588.3900052999961,588.6955566999968,588.7300423000124,589.0352599999751,589.0776371000102,589.3831375999725,589.3831375999725,589.688278799993,589.730707300012,590.0354292999837,590.0775010000216,590.3831585000153,590.3831585000153,590.6882418000023,590.7305047999835,591.0353033000138,591.0778446000186,591.3828823000076,591.3828823000076,591.6878529000096,591.7300856999937,592.0350809000083,592.0772643999662,None,,,,,,,,,,,,,,,,,,,,001,2020_Dec_17_1752,new_STLI_updated,2020.2.10,143.90911861214985,
LZ_natural\LZ_natural_223.jpg,LZ_natural\LZ_natural_192.jpg,LZ_natural\LZ_natural_179.jpg,LZ_natural\LZ_natural_71.jpg,None,None,None,None,None,None,None,None,None,None,None,None,1,LZ_natural\LZ_natural_192.jpg,1,a,1,11,0,77,77,77,,,,,,,,,,,,,,,,,,,,,,,,,,,,,,,,,,,,,,,594.2626078000176,None,595.2700172999757,596.2720489000203,596.2586509999819,597.2585318000056,597.2585318000056,598.2579510000069,598.2579510000069,None,599.2627104999847,600.2673343999777,600.2515761000104,None,l,0,0.5858383000013418,1.0002577000996098,None,,,,,,,,,,,,,,,,,,,,,,,,,,,,,,,,,,,,,,,,,,,,001,2020_Dec_17_1752,new_STLI_updated,2020.2.10,143.90911861214985,
LZ_scrambled\LZ_scrambled_52.jpg,LZ_scrambled\LZ_scrambled_161.jpg,LZ_scrambled\LZ_scrambled_177.jpg,LZ_scrambled\LZ_scrambled_149.jpg,LZ_scrambled\LZ_scrambled_147.jpg,LZ_scrambled\LZ_scrambled_59.jpg,LZ_scrambled\LZ_scrambled_40.jpg,LZ_scrambled\LZ_scrambled_130.jpg,None,None,None,None,None,None,None,None,2,LZ_scrambled\LZ_scrambled_139.jpg,0,l,2,22,0,78,78,78,,,,,,,,,,,,,,,,,,,,,,,,,,,,,,,,,,,,,,,600.8525265000062,None,,,,,,,,,605.8197888999712,606.8231837999774,606.8160881000222,None,l,1,0.7662958999862894,0.9991634999751113,None,,,,,,,,,,,,,,,,,,,,,,,,,602.0415975999786,602.493870700011,602.5363988999743,602.9867641999735,603.0360108999885,603.4869973000023,603.5363064999692,603.9868001000141,604.0361706999829,604.4868733999901,604.5362498000031,604.9868488999782,605.0364389999886,605.4869797999854,605.5363602999714,None,,,,001,2020_Dec_17_1752,new_STLI_updated,2020.2.10,143.90911861214985,
LZ_noise\LZ_noise_106.jpg,LZ_noise\LZ_noise_91.jpg,LZ_noise\LZ_noise_162.jpg,LZ_noise\LZ_noise_116.jpg,LZ_noise\LZ_noise_2.jpg,LZ_noise\LZ_noise_32.jpg,LZ_noise\LZ_noise_178.jpg,LZ_noise\LZ_noise_136.jpg,None,None,None,None,None,None,None,None,2,LZ_noise\LZ_noise_171.jpg,0,l,3,32,0,79,79,79,,,,,,,,,,,,,,,,,,,,,,,,,,,,,,,,,,,,,,,607.5887440000079,None,,,,,,,,,612.5517248999677,613.550915699976,613.5362707999884,None,l,1,0.9018396000028588,0.999892899999395,None,,,,,,,,,,,,,,,,,,,,,,,,,608.6795086999773,609.1329319999786,609.1540582000162,609.6051691999892,609.6543424999691,610.1051253000041,610.1541940000025,610.6051699999953,610.6544052999816,611.1048907000222,611.1543703000061,611.605017599999,611.6540682999766,612.105284099991,612.154525400023,None,,,,001,2020_Dec_17_1752,new_STLI_updated,2020.2.10,143.90911861214985,
LZ_scrambled\LZ_scrambled_136.jpg,LZ_scrambled\LZ_scrambled_125.jpg,LZ_scrambled\LZ_scrambled_39.jpg,LZ_scrambled\LZ_scrambled_177.jpg,LZ_scrambled\LZ_scrambled_3.jpg,LZ_scrambled\LZ_scrambled_134.jpg,LZ_scrambled\LZ_scrambled_191.jpg,LZ_scrambled\LZ_scrambled_94.jpg,None,None,None,None,None,None,None,None,2,LZ_scrambled\LZ_scrambled_60.jpg,0,l,2,22,0,80,80,80,,,,,,,,,,,,,,,,,,,,,,,,,,,,,,,,,,,,,,,614.449857199972,None,,,,,,,,,619.4250175000052,620.4270745000103,620.4184718999895,None,a,0,1.3143608999671414,1.0054698000312783,None,,,,,,,,,,,,,,,,,,,,,,,,,615.5635957000195,616.0150346999872,616.0502750999876,616.501124900009,616.5502938000136,617.0010713000083,617.0502770000021,617.5011714000138,617.5502457999974,618.0009670999716,618.050367799995,618.5008486000006,618.5503089000122,619.0011689999956,619.050132400007,None,,,,001,2020_Dec_17_1752,new_STLI_updated,2020.2.10,143.90911861214985,
LZ_natural\LZ_natural_212.jpg,LZ_natural\LZ_natural_220.jpg,LZ_natural\LZ_natural_167.jpg,LZ_natural\LZ_natural_72.jpg,None,None,None,None,None,None,None,None,None,None,None,None,1,LZ_natural\LZ_natural_90.jpg,0,l,1,11,0,81,81,81,,,,,,,,,,,,,,,,,,,,,,,,,,,,,,,,,,,,,,,621.7491945999791,None,622.7761274999939,623.7794891999802,623.7729451999767,624.7724780999706,624.7724780999706,625.7725875999895,625.7725875999895,None,626.7583634000039,627.7607731000171,627.7515408999752,None,l,1,0.6622645000461489,1.0000700000091456,None,,,,,,,,,,,,,,,,,,,,,,,,,,,,,,,,,,,,,,,,,,,,001,2020_Dec_17_1752,new_STLI_updated,2020.2.10,143.90911861214985,
LZ_natural\LZ_natural_217.jpg,LZ_natural\LZ_natural_21.jpg,LZ_natural\LZ_natural_147.jpg,LZ_natural\LZ_natural_14.jpg,LZ_natural\LZ_natural_190.jpg,LZ_natural\LZ_natural_159.jpg,LZ_natural\LZ_natural_87.jpg,LZ_natural\LZ_natural_60.jpg,LZ_natural\LZ_natural_200.jpg,LZ_natural\LZ_natural_128.jpg,LZ_natural\LZ_natural_6.jpg,LZ_natural\LZ_natural_144.jpg,None,None,None,None,3,LZ_natural\LZ_natural_190.jpg,1,a,1,13,0,82,82,82,,,,,,,,,,,,,,,,,,,,,,,,,,,,,,,,,,,,,,,628.4348273000214,None,,,,,,,,,633.4434231999912,634.4483673999785,634.432509300008,None,a,1,1.8203148000175133,1.0004815000575036,None,629.4793006000109,629.7788692999748,629.8280577000114,630.1330533999717,630.1753576999763,630.4807149000117,630.474562700023,630.7791753999772,630.8283898999798,631.1330212000175,631.1751698000007,631.4809210000094,631.4743099000189,631.7790601999732,631.827758200001,632.1263181999675,632.1752400000114,632.4809961999999,632.4746170999715,632.7786830000114,632.8282688999898,633.1334903999814,633.1754581999849,None,,,,,,,,,,,,,,,,,,,,001,2020_Dec_17_1752,new_STLI_updated,2020.2.10,143.90911861214985,
LZ_scrambled\LZ_scrambled_234.jpg,LZ_scrambled\LZ_scrambled_186.jpg,LZ_scrambled\LZ_scrambled_141.jpg,LZ_scrambled\LZ_scrambled_98.jpg,LZ_scrambled\LZ_scrambled_202.jpg,LZ_scrambled\LZ_scrambled_120.jpg,LZ_scrambled\LZ_scrambled_216.jpg,LZ_scrambled\LZ_scrambled_158.jpg,LZ_scrambled\LZ_scrambled_217.jpg,LZ_scrambled\LZ_scrambled_97.jpg,LZ_scrambled\LZ_scrambled_206.jpg,LZ_scrambled\LZ_scrambled_69.jpg,None,None,None,None,3,LZ_scrambled\LZ_scrambled_206.jpg,1,a,2,23,0,83,83,83,,,,,,,,,,,,,,,,,,,,,,,,,,,,,,,,,,,,,,,636.263977399969,None,,,,,,,,,641.2784796999767,642.281685199996,642.2731064999825,None,a,1,0.5397990999626927,1.0065213000052609,None,637.5621960000135,637.8622933999868,637.8980333000072,638.2026072000153,638.2518482999876,638.5575253000134,638.5507924999692,638.855418000021,638.8982152999961,639.2028087999788,639.2524606999941,639.5571424000082,639.5511159999878,639.8554718999658,639.8977530999691,640.2028076999704,640.2518544999766,640.5572774999891,640.55089090002,640.8556654999848,640.8981769999955,641.2029508000123,641.2518640999915,None,,,,,,,,,,,,,,,,,,,,001,2020_Dec_17_1752,new_STLI_updated,2020.2.10,143.90911861214985,
LZ_noise\LZ_noise_219.jpg,LZ_noise\LZ_noise_110.jpg,LZ_noise\LZ_noise_153.jpg,LZ_noise\LZ_noise_82.jpg,None,None,None,None,None,None,None,None,None,None,None,None,1,LZ_noise\LZ_noise_110.jpg,1,a,3,31,0,84,84,84,,,,,,,,,,,,,,,,,,,,,,,,,,,,,,,,,,,,,,,642.8260487000225,None,643.8559920999687,644.8561037000036,644.8497272999957,645.8492942000157,645.8492942000157,646.8490600999794,646.8490600999794,None,647.8358262999682,648.8365361000178,648.8282685999875,None,a,1,0.776538799982518,1.0053491000435315,None,,,,,,,,,,,,,,,,,,,,,,,,,,,,,,,,,,,,,,,,,,,,001,2020_Dec_17_1752,new_STLI_updated,2020.2.10,143.90911861214985,
LZ_natural\LZ_natural_184.jpg,LZ_natural\LZ_natural_64.jpg,LZ_natural\LZ_natural_80.jpg,LZ_natural\LZ_natural_141.jpg,None,None,None,None,None,None,None,None,None,None,None,None,1,LZ_natural\LZ_natural_77.jpg,0,l,1,11,0,85,85,85,,,,,,,,,,,,,,,,,,,,,,,,,,,,,,,,,,,,,,,649.6159300999716,None,650.6308354000212,651.6339399999706,651.6275654999772,652.6269151999732,652.6269151999732,653.6273207999766,653.6273207999766,None,654.6206421999959,655.6221570000052,655.6129170000204,None,l,1,0.6479557999991812,1.000206700002309,None,,,,,,,,,,,,,,,,,,,,,,,,,,,,,,,,,,,,,,,,,,,,001,2020_Dec_17_1752,new_STLI_updated,2020.2.10,143.90911861214985,
LZ_noise\LZ_noise_232.jpg,LZ_noise\LZ_noise_166.jpg,LZ_noise\LZ_noise_73.jpg,LZ_noise\LZ_noise_77.jpg,None,None,None,None,None,None,None,None,None,None,None,None,1,LZ_noise\LZ_noise_59.jpg,0,l,3,31,0,86,86,86,,,,,,,,,,,,,,,,,,,,,,,,,,,,,,,,,,,,,,,656.2701539999689,None,657.2956212999998,658.3002668999834,658.29420080001,659.2939299999853,659.2939299999853,660.2940182000166,660.2940182000166,None,661.2772372000036,662.2833304000087,662.2730678999797,None,a,0,0.5479206999880262,1.0018519999575801,None,,,,,,,,,,,,,,,,,,,,,,,,,,,,,,,,,,,,,,,,,,,,001,2020_Dec_17_1752,new_STLI_updated,2020.2.10,143.90911861214985,
LZ_scrambled\LZ_scrambled_143.jpg,LZ_scrambled\LZ_scrambled_87.jpg,LZ_scrambled\LZ_scrambled_56.jpg,LZ_scrambled\LZ_scrambled_171.jpg,LZ_scrambled\LZ_scrambled_204.jpg,LZ_scrambled\LZ_scrambled_131.jpg,LZ_scrambled\LZ_scrambled_174.jpg,LZ_scrambled\LZ_scrambled_182.jpg,None,None,None,None,None,None,None,None,2,LZ_scrambled\LZ_scrambled_177.jpg,0,l,2,22,0,87,87,87,,,,,,,,,,,,,,,,,,,,,,,,,,,,,,,,,,,,,,,662.8314649999957,None,,,,,,,,,667.8059926999849,668.8103105999762,668.8009448999655,None,l,1,1.456493399979081,1.0003658000496216,None,,,,,,,,,,,,,,,,,,,,,,,,,664.0432599000051,664.4946181999985,664.5370692000142,664.987538299989,665.0373073000228,665.4880064000026,665.5370386000141,665.9875706000021,666.0370869999751,666.4879363999935,666.5370833000052,666.9877888999763,667.0372031999868,667.4874737000209,667.5371631999733,None,,,,001,2020_Dec_17_1752,new_STLI_updated,2020.2.10,143.90911861214985,
LZ_scrambled\LZ_scrambled_62.jpg,LZ_scrambled\LZ_scrambled_189.jpg,LZ_scrambled\LZ_scrambled_238.jpg,LZ_scrambled\LZ_scrambled_110.jpg,LZ_scrambled\LZ_scrambled_179.jpg,LZ_scrambled\LZ_scrambled_53.jpg,LZ_scrambled\LZ_scrambled_144.jpg,LZ_scrambled\LZ_scrambled_225.jpg,LZ_scrambled\LZ_scrambled_231.jpg,LZ_scrambled\LZ_scrambled_109.jpg,LZ_scrambled\LZ_scrambled_167.jpg,LZ_scrambled\LZ_scrambled_121.jpg,None,None,None,None,3,LZ_scrambled\LZ_scrambled_229.jpg,0,l,2,23,0,88,88,88,,,,,,,,,,,,,,,,,,,,,,,,,,,,,,,,,,,,,,,670.2802389999852,None,,,,,,,,,675.3087016000063,676.3195278000203,676.3063636000152,None,a,0,0.6817015999695286,1.0048216999857686,None,672.4090978999739,672.7129633000004,672.7492473999737,673.0532199000008,673.0937477999832,673.3944355999702,673.3944355999702,673.6989917000174,673.7477104999707,674.0529367999989,674.096070199972,674.4055578999687,674.3977968000108,674.699630499992,674.7489331999677,675.0513000999927,675.0961131000076,None,None,None,None,None,None,None,,,,,,,,,,,,,,,,,,,,001,2020_Dec_17_1752,new_STLI_updated,2020.2.10,143.90911861214985,
LZ_natural\LZ_natural_219.jpg,LZ_natural\LZ_natural_232.jpg,LZ_natural\LZ_natural_124.jpg,LZ_natural\LZ_natural_56.jpg,LZ_natural\LZ_natural_117.jpg,LZ_natural\LZ_natural_142.jpg,LZ_natural\LZ_natural_230.jpg,LZ_natural\LZ_natural_90.jpg,None,None,None,None,None,None,None,None,2,LZ_natural\LZ_natural_65.jpg,0,l,1,12,0,89,89,89,,,,,,,,,,,,,,,,,,,,,,,,,,,,,,,,,,,,,,,677.0020736000151,None,,,,,,,,,681.9620348999742,682.9645825999905,682.957171600021,None,l,1,1.3272752999910153,1.004470299987588,None,,,,,,,,,,,,,,,,,,,,,,,,,680.3763153000036,681.1502258999972,681.1502258999972,681.6028645000188,681.353208000015,681.8037949000136,681.8531316000153,None,None,None,None,None,None,None,None,None,,,,001,2020_Dec_17_1752,new_STLI_updated,2020.2.10,143.90911861214985,
LZ_noise\LZ_noise_86.jpg,LZ_noise\LZ_noise_49.jpg,LZ_noise\LZ_noise_50.jpg,LZ_noise\LZ_noise_113.jpg,None,None,None,None,None,None,None,None,None,None,None,None,1,LZ_noise\LZ_noise_86.jpg,1,a,3,31,0,90,90,90,,,,,,,,,,,,,,,,,,,,,,,,,,,,,,,,,,,,,,,684.294486299972,None,685.3346579999779,686.3393059999798,686.3330427000183,687.3321993999998,687.3321993999998,688.3323298000032,688.3323298000032,None,689.3009862999897,690.3052317000111,690.2975989999832,None,l,0,1.1714372000424191,1.002299799991306,None,,,,,,,,,,,,,,,,,,,,,,,,,,,,,,,,,,,,,,,,,,,,001,2020_Dec_17_1752,new_STLI_updated,2020.2.10,143.90911861214985,
LZ_natural\LZ_natural_51.jpg,LZ_natural\LZ_natural_164.jpg,LZ_natural\LZ_natural_43.jpg,LZ_natural\LZ_natural_237.jpg,None,None,None,None,None,None,None,None,None,None,None,None,1,LZ_natural\LZ_natural_43.jpg,1,a,1,11,0,91,91,91,,,,,,,,,,,,,,,,,,,,,,,,,,,,,,,,,,,,,,,691.4810064000194,None,692.4962756999885,693.4992500999942,693.4924708000035,694.4923240999924,694.4923240999924,695.4922829999705,695.4922829999705,None,696.4868696000194,697.4934550999897,697.4780474000145,None,a,1,0.6867914000176825,1.0000580999767408,None,,,,,,,,,,,,,,,,,,,,,,,,,,,,,,,,,,,,,,,,,,,,001,2020_Dec_17_1752,new_STLI_updated,2020.2.10,143.90911861214985,
LZ_noise\LZ_noise_46.jpg,LZ_noise\LZ_noise_137.jpg,LZ_noise\LZ_noise_24.jpg,LZ_noise\LZ_noise_190.jpg,LZ_noise\LZ_noise_183.jpg,LZ_noise\LZ_noise_101.jpg,LZ_noise\LZ_noise_176.jpg,LZ_noise\LZ_noise_4.jpg,LZ_noise\LZ_noise_164.jpg,LZ_noise\LZ_noise_43.jpg,LZ_noise\LZ_noise_196.jpg,LZ_noise\LZ_noise_219.jpg,None,None,None,None,3,LZ_noise\LZ_noise_141.jpg,0,l,3,33,0,92,92,92,,,,,,,,,,,,,,,,,,,,,,,,,,,,,,,,,,,,,,,698.1744866999798,None,,,,,,,,,703.1819440000108,704.1884757999796,704.1799547999981,None,l,1,1.2971873999922536,1.0052307000150904,None,699.273079400009,699.5750719999778,699.5893709000084,699.8946277999785,699.9433267000131,700.2488863000181,700.2423455999815,700.5469961999916,700.5897495999816,700.8945666999789,700.9434550000005,701.249118399981,701.2425492000184,701.5474027000018,701.589534299972,701.8944538999931,701.9438287999947,702.2490253999713,702.2427254000213,702.5473601999693,702.5896775000147,702.8945466000005,702.94357090001,None,,,,,,,,,,,,,,,,,,,,001,2020_Dec_17_1752,new_STLI_updated,2020.2.10,143.90911861214985,
LZ_noise\LZ_noise_131.jpg,LZ_noise\LZ_noise_145.jpg,LZ_noise\LZ_noise_224.jpg,LZ_noise\LZ_noise_194.jpg,LZ_noise\LZ_noise_205.jpg,LZ_noise\LZ_noise_79.jpg,LZ_noise\LZ_noise_30.jpg,LZ_noise\LZ_noise_133.jpg,LZ_noise\LZ_noise_9.jpg,LZ_noise\LZ_noise_160.jpg,LZ_noise\LZ_noise_200.jpg,LZ_noise\LZ_noise_223.jpg,None,None,None,None,3,LZ_noise\LZ_noise_9.jpg,1,a,3,33,0,93,93,93,,,,,,,,,,,,,,,,,,,,,,,,,,,,,,,,,,,,,,,705.4882892000023,None,,,,,,,,,710.4947316999896,711.5023751999834,711.4921638999949,None,l,0,0.7368391000200063,1.0048735000309534,None,706.5266688999836,706.8322746999911,706.8674525999813,707.1724513000227,707.2214169999934,707.5269597999868,707.5205674999743,707.8250602000044,707.8672245999915,708.1722514000139,708.2146502999822,708.5204738000175,708.5204738000175,708.8254789999919,708.8674123999663,709.1722499000025,709.2147645999794,709.5200572999893,709.5200572999893,709.8250346999848,709.8673119000159,710.1722276000073,710.2145409000223,None,,,,,,,,,,,,,,,,,,,,001,2020_Dec_17_1752,new_STLI_updated,2020.2.10,143.90911861214985,
LZ_natural\LZ_natural_198.jpg,LZ_natural\LZ_natural_208.jpg,LZ_natural\LZ_natural_240.jpg,LZ_natural\LZ_natural_23.jpg,LZ_natural\LZ_natural_229.jpg,LZ_natural\LZ_natural_138.jpg,LZ_natural\LZ_natural_95.jpg,LZ_natural\LZ_natural_102.jpg,LZ_natural\LZ_natural_222.jpg,LZ_natural\LZ_natural_215.jpg,LZ_natural\LZ_natural_187.jpg,LZ_natural\LZ_natural_227.jpg,None,None,None,None,3,LZ_natural\LZ_natural_68.jpg,0,l,1,13,0,94,94,94,,,,,,,,,,,,,,,,,,,,,,,,,,,,,,,,,,,,,,,712.2436099000042,None,,,,,,,,,717.2545946000027,718.258207899984,718.2491942999768,None,a,0,0.8191682000178844,1.0003277999348938,None,713.2688851999701,713.5683806000161,713.610620899999,713.9156114999787,713.9575576999923,714.2632588999695,714.2632588999695,714.56803819997,714.6102827999857,714.9088352000108,714.9575502999942,715.2631812000182,715.2631812000182,715.5683999999892,715.6103464000043,715.9156491999747,715.9575833000126,716.2632946000085,716.2632946000085,716.5686035999679,716.6107306000195,716.915720799996,716.9580638000043,None,,,,,,,,,,,,,,,,,,,,001,2020_Dec_17_1752,new_STLI_updated,2020.2.10,143.90911861214985,
LZ_natural\LZ_natural_74.jpg,LZ_natural\LZ_natural_218.jpg,LZ_natural\LZ_natural_213.jpg,LZ_natural\LZ_natural_40.jpg,LZ_natural\LZ_natural_205.jpg,LZ_natural\LZ_natural_158.jpg,LZ_natural\LZ_natural_53.jpg,LZ_natural\LZ_natural_29.jpg,None,None,None,None,None,None,None,None,2,LZ_natural\LZ_natural_218.jpg,1,a,1,12,0,95,95,95,,,,,,,,,,,,,,,,,,,,,,,,,,,,,,,,,,,,,,,719.0770266000181,None,,,,,,,,,724.035101299989,725.0423643999966,725.0269923000014,None,l,0,1.1291000000201166,0.9997699999366887,None,,,,,,,,,,,,,,,,,,,,,,,,,720.1004803999676,720.5545939999865,720.5965740999673,721.0475366999744,721.0968123999774,721.5472751000198,721.5963921999792,722.0471619999735,722.0963520000223,722.5471841999679,722.5963059000205,723.0471661000047,723.0963491000002,723.5472204000107,723.5963569000014,None,,,,001,2020_Dec_17_1752,new_STLI_updated,2020.2.10,143.90911861214985,
LZ_scrambled\LZ_scrambled_228.jpg,LZ_scrambled\LZ_scrambled_224.jpg,LZ_scrambled\LZ_scrambled_233.jpg,LZ_scrambled\LZ_scrambled_166.jpg,None,None,None,None,None,None,None,None,None,None,None,None,1,LZ_scrambled\LZ_scrambled_216.jpg,0,l,2,21,0,96,96,96,,,,,,,,,,,,,,,,,,,,,,,,,,,,,,,,,,,,,,,726.1672101999866,None,727.2703507000115,728.2701107999892,728.2638864999753,729.2637430999894,729.2637430999894,730.2638986000093,730.2638986000093,None,731.1875419999706,732.1885992999887,732.1803732999833,None,l,1,0.6347134999814443,1.0027224000077695,None,,,,,,,,,,,,,,,,,,,,,,,,,,,,,,,,,,,,,,,,,,,,001,2020_Dec_17_1752,new_STLI_updated,2020.2.10,143.90911861214985,
LZ_noise\LZ_noise_6.jpg,LZ_noise\LZ_noise_146.jpg,LZ_noise\LZ_noise_198.jpg,LZ_noise\LZ_noise_61.jpg,LZ_noise\LZ_noise_211.jpg,LZ_noise\LZ_noise_48.jpg,LZ_noise\LZ_noise_121.jpg,LZ_noise\LZ_noise_214.jpg,None,None,None,None,None,None,None,None,2,LZ_noise\LZ_noise_27.jpg,0,l,3,32,0,97,97,97,,,,,,,,,,,,,,,,,,,,,,,,,,,,,,,,,,,,,,,732.8288685000152,None,,,,,,,,,737.7949638999999,738.8004472000175,738.7844370999956,None,l,1,0.5811576999840327,1.000617899990175,None,,,,,,,,,,,,,,,,,,,,,,,,,733.8636601999751,734.3183818999678,734.353872000007,734.8044579999987,734.8540009999997,735.3047506000148,735.3537063999684,735.8047262000036,735.8537510000169,736.3045449000201,736.3537268000073,736.8048245999962,736.854064300016,737.304403999995,737.353961899993,None,,,,001,2020_Dec_17_1752,new_STLI_updated,2020.2.10,143.90911861214985,
LZ_noise\LZ_noise_203.jpg,LZ_noise\LZ_noise_116.jpg,LZ_noise\LZ_noise_172.jpg,LZ_noise\LZ_noise_90.jpg,None,None,None,None,None,None,None,None,None,None,None,None,1,LZ_noise\LZ_noise_228.jpg,0,l,3,31,0,98,98,98,,,,,,,,,,,,,,,,,,,,,,,,,,,,,,,,,,,,,,,739.3760167,None,740.407303999993,741.4094942000229,741.3960537000094,742.3957180000143,742.3957180000143,743.3954823999666,743.3954823999666,None,744.3905998999835,745.3976547999773,745.3816573999939,None,l,1,1.7350244999979623,1.0006008999771439,None,,,,,,,,,,,,,,,,,,,,,,,,,,,,,,,,,,,,,,,,,,,,001,2020_Dec_17_1752,new_STLI_updated,2020.2.10,143.90911861214985,
LZ_scrambled\LZ_scrambled_93.jpg,LZ_scrambled\LZ_scrambled_212.jpg,LZ_scrambled\LZ_scrambled_58.jpg,LZ_scrambled\LZ_scrambled_145.jpg,LZ_scrambled\LZ_scrambled_74.jpg,LZ_scrambled\LZ_scrambled_81.jpg,LZ_scrambled\LZ_scrambled_119.jpg,LZ_scrambled\LZ_scrambled_239.jpg,None,None,None,None,None,None,None,None,2,LZ_scrambled\LZ_scrambled_145.jpg,1,a,2,22,0,99,99,99,,,,,,,,,,,,,,,,,,,,,,,,,,,,,,,,,,,,,,,747.1284515999723,None,,,,,,,,,752.0943334000185,753.0993968999828,753.090271299996,None,l,0,1.0376462999847718,1.00283800001489,None,,,,,,,,,,,,,,,,,,,,,,,,,748.2942080000066,748.749445399968,748.7846671000007,749.2352383999969,749.2846842000145,749.7356351999915,749.7850623999839,750.2354288999923,750.2846795999794,750.7352181000169,750.7845185999759,751.2351219999837,751.284903199994,751.7351528999861,751.7849095999845,None,,,,001,2020_Dec_17_1752,new_STLI_updated,2020.2.10,143.90911861214985,
LZ_natural\LZ_natural_207.jpg,LZ_natural\LZ_natural_105.jpg,LZ_natural\LZ_natural_121.jpg,LZ_natural\LZ_natural_73.jpg,LZ_natural\LZ_natural_175.jpg,LZ_natural\LZ_natural_55.jpg,LZ_natural\LZ_natural_22.jpg,LZ_natural\LZ_natural_131.jpg,None,None,None,None,None,None,None,None,2,LZ_natural\LZ_natural_207.jpg,1,a,1,12,0,100,100,100,,,,,,,,,,,,,,,,,,,,,,,,,,,,,,,,,,,,,,,754.1428812000086,None,,,,,,,,,759.1038408000022,760.1068044999847,760.0971495999838,None,a,1,0.7000690999557264,1.0007794999983162,None,,,,,,,,,,,,,,,,,,,,,,,,,755.1882549999864,755.6380681999726,755.6668089000159,756.1175167000038,756.1666175000137,756.6172936999938,756.6666842999985,757.1176092000096,757.1666532999952,757.6174024000065,757.6667348999763,758.1176415999653,758.1665678999852,758.6173092999961,758.6664588999702,None,,,,001,2020_Dec_17_1752,new_STLI_updated,2020.2.10,143.90911861214985,
LZ_noise\LZ_noise_55.jpg,LZ_noise\LZ_noise_235.jpg,LZ_noise\LZ_noise_157.jpg,LZ_noise\LZ_noise_221.jpg,LZ_noise\LZ_noise_10.jpg,LZ_noise\LZ_noise_151.jpg,LZ_noise\LZ_noise_42.jpg,LZ_noise\LZ_noise_228.jpg,None,None,None,None,None,None,None,None,2,LZ_noise\LZ_noise_235.jpg,1,a,3,32,0,101,101,101,,,,,,,,,,,,,,,,,,,,,,,,,,,,,,,,,,,,,,,760.8121823999682,None,,,,,,,,,765.7650559999747,766.7730016999994,766.7642426000093,None,a,1,0.8013373999856412,1.0065146000124514,None,,,,,,,,,,,,,,,,,,,,,,,,,761.8296523999888,762.2841723000165,762.3265804999974,762.7774558999809,762.8265899000107,763.2775149999652,763.3266579000046,763.7771289999946,763.8263916000142,764.2775368000148,764.326254500018,764.7771331999684,764.8264599000104,765.2770440999884,765.3263147000107,None,,,,001,2020_Dec_17_1752,new_STLI_updated,2020.2.10,143.90911861214985,
LZ_noise\LZ_noise_16.jpg,LZ_noise\LZ_noise_135.jpg,LZ_noise\LZ_noise_59.jpg,LZ_noise\LZ_noise_39.jpg,LZ_noise\LZ_noise_125.jpg,LZ_noise\LZ_noise_99.jpg,LZ_noise\LZ_noise_119.jpg,LZ_noise\LZ_noise_215.jpg,LZ_noise\LZ_noise_112.jpg,LZ_noise\LZ_noise_97.jpg,LZ_noise\LZ_noise_76.jpg,LZ_noise\LZ_noise_134.jpg,None,None,None,None,3,LZ_noise\LZ_noise_38.jpg,0,l,3,33,0,102,102,102,,,,,,,,,,,,,,,,,,,,,,,,,,,,,,,,,,,,,,,767.5786194999819,None,,,,,,,,,772.5854735000175,773.5922015999677,773.5833367999876,None,l,1,1.0928905999753624,1.0041738999425434,None,768.6083920999663,768.9093999000033,768.9513748000027,769.2563542000134,769.3059891000157,769.6111967000179,769.6047732000006,769.9093582999776,769.9513970999978,770.256281799986,770.3058581000078,770.6112003999879,770.6047388999723,770.9094870999688,770.9513259999803,771.2563835000037,771.305672699993,771.6112735000206,771.6049308999791,771.9095831000013,771.9513622000231,772.2564132999978,772.3057683000225,None,,,,,,,,,,,,,,,,,,,,001,2020_Dec_17_1752,new_STLI_updated,2020.2.10,143.90911861214985,
LZ_scrambled\LZ_scrambled_64.jpg,LZ_scrambled\LZ_scrambled_106.jpg,LZ_scrambled\LZ_scrambled_140.jpg,LZ_scrambled\LZ_scrambled_7.jpg,None,None,None,None,None,None,None,None,None,None,None,None,1,LZ_scrambled\LZ_scrambled_216.jpg,0,l,2,21,0,103,103,103,,,,,,,,,,,,,,,,,,,,,,,,,,,,,,,,,,,,,,,774.6885225999868,None,775.7795239000116,776.7848817000049,776.7646068999893,777.7643461999833,777.7643461999833,778.7641478999867,778.7641478999867,None,779.7119697000016,780.7178743999684,780.7088127000025,None,a,0,1.9998078999924473,1.003677400003653,None,,,,,,,,,,,,,,,,,,,,,,,,,,,,,,,,,,,,,,,,,,,,001,2020_Dec_17_1752,new_STLI_updated,2020.2.10,143.90911861214985,
LZ_noise\LZ_noise_108.jpg,LZ_noise\LZ_noise_227.jpg,LZ_noise\LZ_noise_66.jpg,LZ_noise\LZ_noise_13.jpg,None,None,None,None,None,None,None,None,None,None,None,None,1,LZ_noise\LZ_noise_70.jpg,0,l,3,31,0,104,104,104,,,,,,,,,,,,,,,,,,,,,,,,,,,,,,,,,,,,,,,782.7228172000032,None,783.7580122000072,784.7570759999799,784.74392909999,785.7435732000158,785.7435732000158,786.7435076999827,786.7435076999827,None,787.7328706000117,788.7387822999735,788.7223940999829,None,l,1,0.6502800000016578,0.9998224999872036,None,,,,,,,,,,,,,,,,,,,,,,,,,,,,,,,,,,,,,,,,,,,,001,2020_Dec_17_1752,new_STLI_updated,2020.2.10,143.90911861214985,
LZ_scrambled\LZ_scrambled_90.jpg,LZ_scrambled\LZ_scrambled_61.jpg,LZ_scrambled\LZ_scrambled_1.jpg,LZ_scrambled\LZ_scrambled_168.jpg,LZ_scrambled\LZ_scrambled_31.jpg,LZ_scrambled\LZ_scrambled_197.jpg,LZ_scrambled\LZ_scrambled_63.jpg,LZ_scrambled\LZ_scrambled_161.jpg,LZ_scrambled\LZ_scrambled_113.jpg,LZ_scrambled\LZ_scrambled_89.jpg,LZ_scrambled\LZ_scrambled_48.jpg,LZ_scrambled\LZ_scrambled_137.jpg,None,None,None,None,3,LZ_scrambled\LZ_scrambled_152.jpg,0,l,2,23,0,105,105,105,,,,,,,,,,,,,,,,,,,,,,,,,,,,,,,,,,,,,,,789.3846370999818,None,,,,,,,,,794.401309799985,795.4050924999756,795.3982861000113,None,a,0,2.1688221000367776,0.9990482000284828,None,790.6475397999748,790.951571499987,790.979453100008,791.2843239000067,791.333937700023,791.6390875999932,791.6329633999849,791.937189899967,791.9794475999661,792.2842302999925,792.3336023999727,792.6390450000181,792.6326547000208,792.9373673999798,792.9799367999658,793.2848609000212,793.3335537000094,793.6391554999864,793.6327646999853,793.9375175000168,793.9797316999757,794.2847934999736,794.3339919999707,None,,,,,,,,,,,,,,,,,,,,001,2020_Dec_17_1752,new_STLI_updated,2020.2.10,143.90911861214985,
LZ_noise\LZ_noise_144.jpg,LZ_noise\LZ_noise_192.jpg,LZ_noise\LZ_noise_138.jpg,LZ_noise\LZ_noise_175.jpg,LZ_noise\LZ_noise_73.jpg,LZ_noise\LZ_noise_197.jpg,LZ_noise\LZ_noise_115.jpg,LZ_noise\LZ_noise_210.jpg,LZ_noise\LZ_noise_234.jpg,LZ_noise\LZ_noise_186.jpg,LZ_noise\LZ_noise_140.jpg,LZ_noise\LZ_noise_107.jpg,None,None,None,None,3,LZ_noise\LZ_noise_73.jpg,1,a,3,33,0,106,106,106,,,,,,,,,,,,,,,,,,,,,,,,,,,,,,,,,,,,,,,797.5666755000129,None,,,,,,,,,802.5748177000205,803.5783974999795,803.5698358999798,None,l,0,0.8425395000376739,1.0034921999904327,None,798.659748599981,798.958541799977,798.9797391999746,799.2849000999704,799.3269793000072,799.6320128000225,799.6258254999993,799.9305885999929,799.979907699977,800.2847948999843,800.3266923999763,800.6322855000035,800.6257844999782,800.9304312000168,800.9795752000064,801.2846460000146,801.326737699972,801.6321987999836,801.6261294999858,801.9303542000125,801.9796872999868,802.2846415999811,802.3268728000112,None,,,,,,,,,,,,,,,,,,,,001,2020_Dec_17_1752,new_STLI_updated,2020.2.10,143.90911861214985,
LZ_scrambled\LZ_scrambled_139.jpg,LZ_scrambled\LZ_scrambled_157.jpg,LZ_scrambled\LZ_scrambled_130.jpg,LZ_scrambled\LZ_scrambled_44.jpg,None,None,None,None,None,None,None,None,None,None,None,None,1,LZ_scrambled\LZ_scrambled_219.jpg,0,l,2,21,0,107,107,107,,,,,,,,,,,,,,,,,,,,,,,,,,,,,,,,,,,,,,,804.4270491999923,None,805.4859588000108,806.4864404000109,806.4804310000036,807.4798956000013,807.4798956000013,808.4801668999717,808.4801668999717,None,809.4496195999673,810.4536946999724,810.4381608999684,None,a,0,0.6780906000058167,0.9999545000027865,None,,,,,,,,,,,,,,,,,,,,,,,,,,,,,,,,,,,,,,,,,,,,001,2020_Dec_17_1752,new_STLI_updated,2020.2.10,143.90911861214985,
LZ_scrambled\LZ_scrambled_107.jpg,LZ_scrambled\LZ_scrambled_215.jpg,LZ_scrambled\LZ_scrambled_9.jpg,LZ_scrambled\LZ_scrambled_196.jpg,None,None,None,None,None,None,None,None,None,None,None,None,1,LZ_scrambled\LZ_scrambled_215.jpg,1,a,2,21,0,108,108,108,,,,,,,,,,,,,,,,,,,,,,,,,,,,,,,,,,,,,,,811.1312007000088,None,812.1833413999993,813.1877000000095,813.1747571000014,814.1748500000103,814.1748500000103,815.174818200001,815.174818200001,None,816.1441407999955,817.1481068999856,817.1394512999686,None,l,0,1.4808967999997549,1.000049200025387,None,,,,,,,,,,,,,,,,,,,,,,,,,,,,,,,,,,,,,,,,,,,,001,2020_Dec_17_1752,new_STLI_updated,2020.2.10,143.90911861214985,
LZ_natural\LZ_natural_118.jpg,LZ_natural\LZ_natural_91.jpg,LZ_natural\LZ_natural_58.jpg,LZ_natural\LZ_natural_239.jpg,LZ_natural\LZ_natural_113.jpg,LZ_natural\LZ_natural_99.jpg,LZ_natural\LZ_natural_41.jpg,LZ_natural\LZ_natural_115.jpg,LZ_natural\LZ_natural_133.jpg,LZ_natural\LZ_natural_104.jpg,LZ_natural\LZ_natural_101.jpg,LZ_natural\LZ_natural_45.jpg,None,None,None,None,3,LZ_natural\LZ_natural_133.jpg,1,a,1,13,0,109,109,109,,,,,,,,,,,,,,,,,,,,,,,,,,,,,,,,,,,,,,,818.628928399994,None,,,,,,,,,823.6381922999863,824.6415061000152,824.6324261999689,None,l,0,2.9946419000043534,1.0025575999752618,None,819.6551663000137,819.9584247000166,820.0009216999752,820.3058127000113,820.3479078999953,820.6533708000206,820.6469947000151,820.9515245999792,821.0007884000079,821.3058866999927,821.3482780000195,821.6534957999829,821.6469489000156,821.9517033000011,822.0008877000073,822.3060168999946,822.3479885999695,822.6534662999911,822.6470222999924,822.9517029999988,823.0004529000144,823.2988141999813,823.3477202000213,None,,,,,,,,,,,,,,,,,,,,001,2020_Dec_17_1752,new_STLI_updated,2020.2.10,143.90911861214985,
LZ_scrambled\LZ_scrambled_190.jpg,LZ_scrambled\LZ_scrambled_221.jpg,LZ_scrambled\LZ_scrambled_117.jpg,LZ_scrambled\LZ_scrambled_46.jpg,None,None,None,None,None,None,None,None,None,None,None,None,1,LZ_scrambled\LZ_scrambled_181.jpg,0,l,2,21,0,110,110,110,,,,,,,,,,,,,,,,,,,,,,,,,,,,,,,,,,,,,,,827.650339099986,None,828.7353125999798,829.7346422999981,829.7346422999981,830.7360954000033,830.7293306000065,831.7373732000124,831.7299391999841,None,834.6977317999699,835.702775600017,834.707926300005,None,l,1,2.5062597999931313,1.6284277000813745,None,,,,,,,,,,,,,,,,,,,,,,,,,,,,,,,,,,,,,,,,,,,,001,2020_Dec_17_1752,new_STLI_updated,2020.2.10,143.90911861214985,
LZ_noise\LZ_noise_142.jpg,LZ_noise\LZ_noise_118.jpg,LZ_noise\LZ_noise_63.jpg,LZ_noise\LZ_noise_94.jpg,LZ_noise\LZ_noise_128.jpg,LZ_noise\LZ_noise_171.jpg,LZ_noise\LZ_noise_174.jpg,LZ_noise\LZ_noise_84.jpg,None,None,None,None,None,None,None,None,2,LZ_noise\LZ_noise_15.jpg,0,l,3,32,0,111,111,111,,,,,,,,,,,,,,,,,,,,,,,,,,,,,,,,,,,,,,,837.2188715999946,None,,,,,,,,,842.181301900011,843.1886752999853,843.1729577999795,None,l,1,2.0398770999745466,1.0043909000232816,None,,,,,,,,,,,,,,,,,,,,,,,,,838.2604301999672,838.7139800000004,838.755927399965,839.2069755999837,839.2564009000198,839.7070960999699,839.7563409999711,840.2068370999768,840.2559579000226,840.7069923999952,840.7561362999841,841.2068760999828,841.2564911000081,841.707078300009,841.7561427999754,None,,,,001,2020_Dec_17_1752,new_STLI_updated,2020.2.10,143.90911861214985,
